dataset,subject_id,n_trials,n_responded,n_missed,miss_rate,encoding_accuracy,rt_mean,rt_median,rt_std,rt_cv,Objects_n,Objects_rt_mean,Objects_rt_std,Objects_miss,Scenes_n,Scenes_rt_mean,Scenes_rt_std,Scenes_miss
both,00015,280,280,0,0.0,0.9735099337748344,1.606059801785708,1.5285671999999977,0.5808019543957204,0.3616315866631815,140,1.5551155228571394,0.5663197957512921,0,140,1.6570040807142765,0.5925728382589439,0
both,00016,280,280,0,0.0,0.9745222929936306,1.3472083003572022,1.2104630499998166,0.5016246100354879,0.3723437644367882,140,1.451078670000009,0.5576952866742979,0,140,1.2433379307143955,0.415099251296575,0
both,00017,280,280,1,0.0035714285714285713,0.955696203,1.439953223297491,1.3007495,0.767624765799548,0.5330900708300012,140,1.441776029285714,0.7821448495304537,0,140,1.4381173035971224,0.7555429031430726,1
both,00018,280,280,0,0.0,0.935064935064935,1.2268701971427487,1.0352551499963738,0.5937737811861058,0.4839744111226618,140,1.330060286429008,0.6280822037575328,0,140,1.1236801078564895,0.540124251172076,0
both,00019,280,280,0,0.0,0.9119496855345912,1.298827152857588,1.1429849500054843,0.6194053740450489,0.47689592312747453,140,1.3495685421435546,0.6949703903118424,0,140,1.2480857635716218,0.5309575632026261,0
both,00020,280,280,0,0.0,0.8589743589743589,1.3766747653568538,1.2520799500052817,0.6410033007449074,0.4656170919053275,140,1.3518702707144257,0.6382499196001038,0,140,1.4014792599992818,0.6450768431040338,0
both,00022,280,280,0,0.0,0.967948717948718,1.4654505382142897,1.3814060999999924,0.7186914921531279,0.49042357514766916,140,1.493889605714284,0.7277975255929666,0,140,1.4370114707142951,0.7109377175480975,0
both,00024,280,280,0,0.0,0.9466666666666668,1.2392092628571358,1.0641764500001045,0.6377583422938633,0.5146494312215194,140,1.3495077864285707,0.6230051170921607,0,140,1.128910739285701,0.6354176665573957,0
both,00025,280,280,0,0.0,0.9545454545454546,1.2359661335714334,1.1099984499996935,0.4932942132484713,0.39911628632012275,140,1.3238312642856986,0.526856063184665,0,140,1.148101002857168,0.4419276483198801,0
both,00026,280,280,0,0.0,0.9567901234567902,1.378022356785654,1.2640664499995182,0.5664166494924907,0.411035892635082,140,1.4949117028571761,0.5457156790663165,0,140,1.2611330107141319,0.5644779207294744,0
both,00027,280,280,0,0.0,0.9285714285714286,1.1373128896428588,1.009948750000035,0.5454987915975118,0.47963827418575233,140,1.0786313828571428,0.48492739821591696,0,140,1.195994396428575,0.5959760732549303,0
both,00028,280,280,1,0.0035714285714285713,0.9631901840490796,1.3206111222222445,1.2001421999993909,0.5900461549945452,0.44679780827655846,140,1.2657508700000237,0.554137997129155,0,140,1.3758660525180066,0.621234330451018,1
both,00029,280,280,0,0.0,0.9874213836477987,1.662952691071262,1.6102514000012889,0.6242117038063304,0.37536347675905185,140,1.7346298571427854,0.6617453227171237,0,140,1.5912755249997386,0.5777781950435552,0
both,00030,280,280,1,0.0035714285714285713,0.9745222929936306,1.4925047121863741,1.5737828999999692,0.8403690725570487,0.5630595774307404,140,1.4758272122302278,0.8522366170141096,1,140,1.5090630871428337,0.8311462239359877,0
both,00031,280,280,0,0.0,0.9182389937106918,1.4952487482152979,1.3723601999809034,0.6375473833416719,0.426382154877332,140,1.4851099664274703,0.6031844675140184,0,140,1.5053875300031254,0.6721748150032596,0
both,00032,280,280,0,0.0,0.9693251533742332,1.4555604042861108,1.3647352500047418,0.6817680014501948,0.46838866971279863,140,1.4913509642856038,0.6504421532312544,0,140,1.4197698442866178,0.7122526244371705,0
both,00033,560,560,0,0.0,0.9746835443037974,1.1716713864286217,1.043841749999956,0.6235208341274303,0.5321635753417072,280,1.1932322314285753,0.6111199892007282,0,280,1.150110541428668,0.6360418365688315,0
both,00034,280,280,1,0.0035714285714285713,0.9751552795031057,1.6033552767018124,1.5169062999921152,0.7355490683261582,0.45875613409850247,140,1.6156316230207783,0.7955851505297286,1,140,1.5911666185708393,0.6733219360588897,0
both,00036,280,280,0,0.0,0.9146341463414634,1.3120754867851376,1.172385049998411,0.5620086337444897,0.42833559456364034,140,1.3648212257134478,0.5831571094379702,0,140,1.2593297478568275,0.5369387925775135,0
both,00037,280,280,1,0.0035714285714285713,0.9363057324840764,1.5260368577059855,1.474320000008447,0.8596875342844437,0.5633465076176264,140,1.606409031654065,0.8546487081601055,1,140,1.4462387707146782,0.8602804883738411,0
both,00038,280,280,1,0.0035714285714285713,0.9487179487179488,1.2784161258074347,1.0869380999938585,0.8887984926412581,0.6952341062499521,140,1.3167606647486092,1.0728211478747058,1,140,1.2403454764301256,0.6590374662768428,0
both,00039,280,280,0,0.0,0.9559748427672956,1.2727148285698995,1.1538902999891434,0.5716441224430648,0.4491533449684084,140,1.299698555714401,0.604370055036112,0,140,1.2457311014253978,0.5377499754362677,0
both,00040,280,280,0,0.0,0.9691358024691358,1.4318965449999919,1.3292165500170086,0.580293679342313,0.40526229452024853,140,1.5493667921423497,0.5953565108667077,0,140,1.314426297857634,0.5419018919291615,0
both,00041,280,280,0,0.0,0.9745222929936306,1.5170081110712479,1.405694750003022,0.6778558856583026,0.44683735090884186,140,1.496095052142534,0.7245216162136707,0,140,1.537921169999962,0.6296588755158868,0
both,00042,280,280,0,0.0,0.9671052631578948,1.1901856189285225,1.0875304000037431,0.8248851304591697,0.6930726748335116,140,1.195432746428196,0.8003155530029995,0,140,1.1849384914288488,0.8515901191027033,0
both,00043,280,280,0,0.0,0.9493670886075948,1.67114186571437,1.6402265999931842,0.6947057211997121,0.41570720921574383,140,1.6685447999995502,0.7025636101268673,0,140,1.67373893142919,0.6892712986541111,0
both,00044,280,280,0,0.0,0.937888198757764,1.587797158214172,1.5134582000027876,0.677658170725012,0.4267913991527658,140,1.5692172128571007,0.6625643964799784,0,140,1.6063771035712437,0.6943039411260548,0
both,00045,280,280,1,0.0035714285714285713,0.9407894736842104,1.4372372182792739,1.3576095000025816,0.6568632890762471,0.45703192258176695,140,1.524276219286964,0.6765069120553223,0,140,1.3495720374082187,0.6267276079957026,1
both,00046,280,280,1,0.0035714285714285713,0.9215686274509804,1.5260833924725747,1.4867232000106014,0.5846375323074205,0.3830967135814153,140,1.61622646906419,0.6081488206352734,1,140,1.4365841949994709,0.5479273203304244,0
both,00047,280,280,0,0.0,0.929936305732484,1.3358223878554003,1.1592088999750558,0.6023647928950706,0.45093179929566746,140,1.4669454535702244,0.6194052455380763,0,140,1.204699322140576,0.5567767158111111,0
both,00049,280,280,0,0.0,0.9493670886075948,1.3233363989277027,1.1642698499781545,0.6370995223085866,0.48143429200982246,140,1.3543417828569155,0.6600141449091209,0,140,1.29233101499849,0.6141307230903462,0
both,00050,280,280,1,0.0035714285714285713,0.9745222929936306,1.3506962526879627,1.1814419000293128,0.6202665743088495,0.45921988239360517,140,1.4825940621447184,0.674662157945544,0,140,1.2178495381272016,0.5302305163021026,1
both,00051,280,280,0,0.0,0.9440993788819876,1.6179338460719528,1.5499093999969773,0.531306651420094,0.3283858933478704,140,1.720716890715578,0.5541969595460875,0,140,1.5151508014283277,0.48804648556366026,0
both,00052,280,280,0,0.0,0.9050632911392406,1.9688755253564783,2.079826450004475,0.8039037072053626,0.4083060086085485,140,2.007203020715055,0.8208385974300496,0,140,1.9305480299979016,0.7876779598146041,0
both,00053,280,280,1,0.0035714285714285713,0.9607843137254902,1.3099884623655378,1.164067099976819,0.6024417355615165,0.4598832378062669,140,1.3325432421410888,0.6406889610379493,0,140,1.287271417987285,0.5627071024187608,1
both,00054,280,280,1,0.0035714285714285713,0.9490445859872612,1.3268441318992883,1.1892411999870092,0.5567091091008948,0.4195738562780566,140,1.4175435635718583,0.6103132429199627,0,140,1.2354921863297932,0.4820882388335891,1
both,00055,280,280,1,0.0035714285714285713,0.8148148148148148,1.3174423781362217,1.2544199000003573,0.6652030693142911,0.5049200483859871,140,1.4269520136691138,0.6926878674233995,1,140,1.2087149542857072,0.6202633484869468,0
both,00056,280,280,0,0.0,0.9415584415584416,1.3596733007126853,1.196854500012705,0.5806792509827317,0.42707262890163633,140,1.4151752521421128,0.5973690329498115,0,140,1.3041713492832578,0.5601317548615843,0
both,00057,280,280,0,0.0,0.9551282051282052,1.5716414392857196,1.5138037500000792,0.5452754865080309,0.3469464935690726,140,1.6068112071427874,0.5263048787778666,0,140,1.536471671428652,0.563295034455129,0
both,00058,280,280,0,0.0,0.9867549668874172,1.8555444274960402,1.5377725000143982,1.9193417394633088,1.0343819910867667,140,1.793532120712085,1.76036628026842,0,140,1.9175567342799955,2.0706550371020103,0
both,00059,280,280,0,0.0,0.9683544303797468,1.3994537449988587,1.2693245999980718,0.5174126929637191,0.3697247549715486,140,1.4371602657134646,0.517889114851973,0,140,1.3617472242842528,0.5160277582942655,0
both,00060,280,280,0,0.0,,1.1298476921428569,1.0208963999999998,0.4226850889598159,0.37410802526680026,140,1.1066362328571426,0.4270978853457967,0,140,1.1530591514285715,0.4184648282082351,0
both,00061,280,280,0,0.0,0.9935483870967742,1.4046131110723115,1.2467229000176303,0.5773699378713351,0.411052647394526,140,1.3821688342885214,0.5962176573702614,0,140,1.4270573878561013,0.5591244056790523,0
both,00062,280,280,1,0.0035714285714285713,0.8961038961038961,1.4451973784932328,1.373561000043992,0.729849803009592,0.5050173864628343,140,1.4580325892060264,0.6909245424193351,1,140,1.4324538478569593,0.7688242991541578,0
both,00063,280,280,0,0.0,0.9433962264150944,1.5683303642862094,1.5271593499928713,0.5096188700996281,0.3249435716508427,140,1.6215389078586928,0.4697700981886382,0,140,1.515121820713726,0.543050857176859,0
both,00064,280,280,0,0.0,0.9620253164556962,1.4134395525007026,1.3135338500142097,0.56110100955665,0.39697559656083775,140,1.3209157707161336,0.5027741718563674,0,140,1.5059633342852716,0.60158734862327,0
both,00065,280,280,0,0.0,0.95,1.5642934310736434,1.51796705002198,0.6277684006658804,0.4013111531351348,140,1.630483635001084,0.6297508227392367,0,140,1.4981032271462027,0.6209751278524577,0
both,00066,280,280,0,0.0,0.9625,1.0829150450010534,1.0018761999963317,0.3653133934393297,0.3373426153101182,140,1.0416211735727432,0.36798460199681043,0,140,1.1242089164293638,0.3591939319013377,0
both,00067,280,280,0,0.0,0.968944099378882,1.616852171429907,1.587428849976277,0.688950703041181,0.42610618040107456,140,1.6606765685740226,0.6456424254372187,0,140,1.5730277742857912,0.7293819174007191,0
item_only,00001,280,280,0,0.0,0.8627450980392157,1.161895413928557,0.975981249999677,0.5906289528983106,0.5083322868977495,140,1.2230341628571426,0.604171506330334,0,140,1.1007566649999716,0.5724001161786884,0
item_only,00002,280,280,2,0.007142857142857143,0.7733333333333333,1.8143441802159235,2.092692600001101,0.984395171793424,0.5425625317001717,140,1.707862077857135,1.0672570360288671,0,140,1.922369501449477,0.8833346972695006,2
item_only,00003,280,280,0,0.0,0.7105263157894737,1.4222102185714123,1.3207159500016132,0.7108204006367194,0.4997998125415856,140,1.36894956571419,0.7568665987164487,0,140,1.4754708714286349,0.6600038107592495,0
item_only,00004,280,280,0,0.0,0.8364779874213837,1.3539675578569585,1.1504949499940267,0.6082365584137388,0.44922535616469816,140,1.3859764057140898,0.6130041133299692,0,140,1.3219587099998276,0.6039263427597336,0
item_only,00005,280,280,0,0.0,0.8211920529801324,1.1958146867856287,1.0230619499998284,0.536599592952695,0.44873139532604694,140,1.2598344000000257,0.5550402278599109,0,140,1.1317949735712318,0.5114920110133773,0
item_only,00006,280,280,0,0.0,0.8181818181818182,1.3242584324995863,1.1391890000086278,0.6574434587827525,0.49646159892053987,140,1.3898367914278684,0.6547993292098424,0,140,1.2586800735713042,0.6558569227828576,0
item_only,00007,280,280,0,0.0,0.7643312101910829,1.30831810214326,0.8544235000008484,1.0854477643387295,0.8296512618457018,140,1.3763175871418623,1.103767359789217,0,140,1.2403186171446579,1.066420723128479,0
item_only,00008,280,280,0,0.0,0.7947019867549668,1.8548192435714344,1.643552550000038,1.2276048427605464,0.6618460785412204,140,2.024864732857155,1.4486024833040336,0,140,1.6847737542857137,0.9317580068694571,0
item_only,00009,280,280,2,0.007142857142857143,0.8289473684210527,1.3799885244604424,1.2542440000001989,0.6930973836852687,0.5022486574344963,140,1.5271844798561158,0.7423673184328833,1,140,1.232792569064769,0.6078589198514098,1
item_only,00010,280,280,0,0.0,0.7735849056603774,1.2245244025000075,1.0753844999999274,0.5312642045604927,0.43385350547188417,140,1.261310136428576,0.5272818993800896,0,140,1.1877386685714388,0.5345669026234551,0
item_only,00011,280,280,0,0.0,0.8,1.4279437603572205,1.2382689500000197,0.8092378951626705,0.5667155231381299,140,1.5383421957143322,0.8433880159541185,0,140,1.3175453250001088,0.7606502936049838,0
item_only,00012,280,280,2,0.007142857142857143,0.740506329113924,1.9627023859711503,2.0255000499983,0.5618790209659361,0.2862782584777452,140,2.0971354769783654,0.553051964074706,1,140,1.8282692949639352,0.539843407059993,1
item_only,00013,280,280,0,0.0,0.8378378378378378,1.4999931242857094,1.3233747999999539,0.6820181308223809,0.45468083805194454,140,1.6013877264285632,0.7336747591921323,0,140,1.3985985221428556,0.6120911257356675,0
item_only,00014,280,280,0,0.0,0.825503355704698,1.2645240800000044,1.1048231000002033,0.5542423922370305,0.43830117670596563,140,1.343726265000019,0.5669554168652426,0,140,1.1853218949999895,0.5315115655789396,0
item_only,00015,280,280,3,0.010714285714285714,0.7884615384615384,1.6245339657039746,1.5338271999989956,0.6956950360858796,0.42824283811413416,140,1.7398488181159575,0.7798140421022209,2,140,1.5100487165467542,0.581188829196286,1
item_only,00016,280,280,0,0.0,0.8378378378378378,1.201804212500003,1.0011054999999942,0.5481329811811293,0.4560917456271006,140,1.2642741478571549,0.5716941586691311,0,140,1.1393342771428512,0.5180402412350102,0
item_only,00017,280,280,0,0.0,0.7987012987012987,1.6059552039240121,1.5846087000099942,0.6224023151698985,0.38755895161279247,140,1.6660415364246417,0.6341409109397662,0,140,1.5458688714233826,0.606752706101686,0
item_only,00018,280,280,0,0.0,0.7721518987341772,1.4048928239288216,1.3224355499987723,0.6405108708721962,0.4559144014139027,140,1.361980701428859,0.6301549408298474,0,140,1.4478049464287843,0.6501193541547243,0
item_only,00019,280,280,1,0.0035714285714285713,0.821656050955414,1.5657671039411214,1.469213399977889,0.7136181180881169,0.4557626203104543,140,1.5478639814295871,0.6569015049871084,0,140,1.5837990258951846,0.7684938967728513,1
item_only,00020,280,280,0,0.0,0.8055555555555556,1.3698558775002312,1.262344149996352,0.5915115049852027,0.43180564809826344,140,1.4317514521425307,0.6326414679770235,0,140,1.3079603028579316,0.5425277974469946,0
item_only,00021,280,280,1,0.0035714285714285713,0.8525641025641025,1.5691205437280953,1.471671300008893,0.6827579014675673,0.43512138324656263,140,1.6733480762592317,0.6946937820552789,1,140,1.4656374935721812,0.6569170649234215,0
item_only,00022,280,280,0,0.0,,1.466806445357143,1.55655205,0.9376964293783118,0.6392775490906697,140,1.5213740685714288,0.9369925428136199,0,140,1.412238822142857,0.9385743359007952,0
item_only,00023,280,280,0,0.0,0.8421052631578947,1.2355503646426118,1.1029762499965727,0.5292109423195812,0.42832000820351646,140,1.2926877249963582,0.5432517539376968,0,140,1.1784130042888656,0.5103376290452601,0
item_only,00024,280,280,0,0.0,0.7647058823529411,1.3104576124998857,1.1764851999978418,0.5781373206157849,0.4411720875983964,140,1.3621408142857294,0.5770521066368866,0,140,1.258774410714042,0.5766457082404445,0
item_only,00025,280,280,0,0.0,0.8037974683544303,1.3329687764288143,1.1909728000027826,0.5809276759417917,0.43581491645900944,140,1.3670398750011892,0.6212684912448285,0,140,1.2988976778564392,0.5376512817083631,0
item_only,00026,280,280,0,0.0,0.8181818181818182,1.3105937046387615,1.195638000004692,0.44945215992157894,0.34293782911574516,140,1.3967289307096507,0.42711895283451834,0,140,1.2244584785678723,0.4561708794316239,0
item_only,00027,280,280,0,0.0,0.7532467532467533,1.1089475971430407,0.9314730500045698,0.5348158526485335,0.4822733319648005,140,0.9915021721432692,0.4473896178638701,0,140,1.226393022142812,0.588362945289782,0
item_only,00028,280,280,0,0.0,0.8152866242038217,1.4528244017853078,1.3316240499989362,0.637543623361267,0.4388304757118751,140,1.4663806557137702,0.6565056449235149,0,140,1.4392681478568452,0.6200629640973255,0
item_only,00029,280,280,0,0.0,0.8175675675675675,1.420225660361965,1.2326964500243776,0.6715030516126737,0.47281433532297357,140,1.562377545722328,0.662509094722833,0,140,1.278073775001602,0.6522678369048585,0
item_only,00030,280,280,1,0.0035714285714285713,0.8544303797468354,1.3857097802867175,1.2567809000029229,0.5244528288350954,0.3784723441344123,140,1.5235282735712774,0.49796221154797526,0,140,1.24689978705047,0.5154100406854345,1
item_only,00031,280,280,0,0.0,0.8113207547169812,1.5111350589285264,1.3987818000023253,0.69689081438964,0.4611704362704495,140,1.5787019792852723,0.6964686307761551,0,140,1.4435681385717805,0.6932118936588889,0
item_only,00032,280,280,0,0.0,0.8581081081081081,1.2029476625002904,1.049145099997986,0.476621915939226,0.39621168135326995,140,1.3000079200010597,0.5044482062145006,0,140,1.105887404999521,0.4272309415702495,0
item_only,00033,280,280,0,0.0,0.8074534161490683,1.7294554514269944,1.8296255999593996,0.7645531634671562,0.44207739657955003,140,1.7785572985702727,0.7711961005276006,0,140,1.680353604283716,0.7574221514950333,0
item_only,00034,280,280,0,0.0,0.8108108108108109,1.5401895978571183,1.4591934999916703,0.6461878097347715,0.41955082064819765,140,1.566147674286289,0.6448509102298788,0,140,1.5142315214279474,0.6487922279548353,0
item_only,00035,280,280,0,0.0,0.7960526315789473,1.1904946289293419,1.0725007499859203,0.7219206877178606,0.6064039855157616,140,1.2001521378585105,0.7568897058447949,0,140,1.1808371200001733,0.6877633864022398,0
item_only,00036,280,280,0,0.0,0.75625,1.6447326282136991,1.617740749992663,0.7033311500092579,0.42762643480425594,140,1.760493250001621,0.6969859816913602,0,140,1.528972006425777,0.6929104624248483,0
item_only,00037,280,280,2,0.007142857142857143,0.7792207792207793,1.2729116194256918,1.083471149991965,0.6634277519477626,0.5211891712066277,140,1.338462436958081,0.7200516950255494,2,140,1.2082972421437652,0.598014117921165,0
item_only,00038,280,280,0,0.0,0.7692307692307693,1.0004122892914373,0.8177096499712206,0.4830754226928641,0.48287633794963897,140,1.1240462771475515,0.5001694661395085,0,140,0.8767783014353232,0.4329462279616144,0
item_only,00039,280,280,1,0.0035714285714285713,0.7848101265822784,1.2066455655908597,1.0616434999974445,0.6041486752846871,0.5006844532585282,140,1.3903905407134776,0.6481993780163557,0,140,1.0215786841723955,0.49327931822085824,1
item_only,00040,280,280,0,0.0,0.7894736842105263,1.1784194378575195,1.1251356499851681,0.37898440418953966,0.32160399940327694,140,1.2767270350005544,0.37769527994626734,0,140,1.0801118407144843,0.3552043256991607,0
item_only,00041,280,280,0,0.0,0.7891156462585034,1.5907486953581351,1.5319763000006787,0.6378005492929417,0.400943625573334,140,1.6152683150002434,0.6934378617642064,0,140,1.5662290757160269,0.5783065646032671,0
item_only,00042,280,280,0,0.0,0.7733333333333333,1.493371958926894,1.4561139000288676,0.5638613933912948,0.3775759883669397,140,1.4753737235707896,0.5426462470289581,0,140,1.511370194282998,0.5857040159958424,0
item_only,00043,280,280,1,0.0035714285714285713,0.7792207792207793,1.3182690551976621,1.1319620000140276,0.6219769965261162,0.4718133935358564,140,1.44698556000055,0.6575249631393525,0,140,1.18862653237461,0.5568737474511588,1
item_only,00044,280,280,2,0.007142857142857143,0.803680981595092,1.622547511510943,1.5422152999963146,0.6631541345590846,0.40871168939857083,140,1.6122603712234103,0.6694418381576566,1,140,1.6328346517984755,0.6590660189182042,1
item_only,00045,280,280,0,0.0,0.8461538461538461,1.2199604946429774,1.0136706499906722,0.5251123859841378,0.43043392658203444,140,1.3339397642852937,0.56468611081443,0,140,1.105981225000661,0.45654126010598517,0
item_only,00046,280,280,0,0.0,0.7672955974842768,1.2716942839289134,1.052640900015831,0.6774142281904911,0.5326863828447923,140,1.2989668328581112,0.7389377940521118,0,140,1.2444217349997155,0.6111907156595373,0
item_only,00047,280,280,0,0.0,0.8238993710691824,1.4505719714278322,1.3171652000164613,0.6691170380840832,0.46127806910914976,140,1.5910631478572863,0.7020926245557602,0,140,1.3100807949983782,0.6049484439593311,0
item_only,00048,280,280,0,0.0,0.743421052631579,1.2126594535714244,0.9877028500000051,0.8764792612912898,0.7227744431546347,140,1.2540530914285617,0.8886979984041474,0,140,1.1712658157142868,0.8652877390873387,0
item_only,00049,280,280,1,0.0035714285714285713,0.8269230769230769,1.529156422581754,1.4030558000085875,0.7282121566491797,0.4762182245683548,140,1.5584518748198186,0.7079781998626636,1,140,1.5000702235739611,0.7491651590794441,0
item_only,00050,280,280,0,0.0,0.7806451612903226,0.9670250128569023,0.4893719000028795,1.0995825766097729,1.1370776991189224,140,1.157434830713776,1.2281908902344156,0,140,0.7766151950000286,0.9194431946325451,0
item_only,00051,280,280,3,0.010714285714285714,0.8012820512820513,1.384472263898761,1.2460432999650948,0.6251926509998212,0.45157470272408307,140,1.4763720890496055,0.7085661088684837,3,140,1.2945417207154346,0.5180810868248947,0
item_only,00052,280,280,0,0.0,0.7961783439490446,1.2880344249999796,1.0482911000001423,0.7679602692299996,0.5962265094195847,140,1.3132006421428384,0.788246966300381,0,140,1.262868207857121,0.7491059869583887,0
item_only,00053,280,280,0,0.0,0.825503355704698,1.729656702857249,1.797718150000037,0.7223912611007037,0.4176500804508626,140,1.6946823150001755,0.7038365455244543,0,140,1.7646310907143223,0.7413519272293251,0
item_only,00054,280,280,2,0.007142857142857143,0.8089171974522293,1.4150568352517647,1.3238669999991544,0.7732200103518693,0.5464232892202519,140,1.478401278984139,0.8493688806848214,2,140,1.352617312144139,0.6873714528582162,0
item_only,00055,280,280,0,0.0,0.7857142857142857,1.285370842500041,1.0901345999736805,0.5960191837135707,0.4636943394128311,140,1.392391344999695,0.6635833009269013,0,140,1.178350340000387,0.49961889464400294,0
item_only,00056,280,280,0,0.0,0.785234899328859,1.4455686235705798,1.2973483000096167,0.6566062278977645,0.4542200329970746,140,1.590928716428503,0.6295345691128824,0,140,1.3002085307126565,0.6530606671016763,0
task_only,00019,280,280,0,0.0,0.8936170212765957,1.8085037100000314,1.8146749499996984,0.5642477914704931,0.31199703287890035,280,1.8085037100000314,0.5642477914704931,0,0,,,0
task_only,00020,280,280,0,0.0,0.9534883720930232,1.6826077600001554,1.679145050000443,0.6503868844515328,0.3865350558299296,280,1.6826077600001554,0.6503868844515328,0,0,,,0
task_only,00021,280,280,1,0.0035714285714285713,1.0,1.757992864874713,1.733508500001335,0.8103918525132056,0.46097562095108946,280,1.757992864874713,0.8103918525132056,1,0,,,0
task_only,00022,280,280,0,0.0,0.9615384615384616,1.513344355357133,1.4351297999965027,0.5292955779867796,0.3497522398739655,280,1.513344355357133,0.5292955779867796,0,0,,,0
task_only,00023,280,280,2,0.007142857142857143,0.9767441860465116,1.7561369190650942,1.7145316999885836,0.789668969321493,0.449662529583334,280,1.7561369190650942,0.789668969321493,2,0,,,0
task_only,00024,280,280,0,0.0,0.9318181818181818,1.542391738571366,1.3336686000038753,1.3295813126808786,0.8620256964760443,280,1.542391738571366,1.3295813126808786,0,0,,,0
task_only,00025,280,280,1,0.0035714285714285713,0.9743589743589745,1.7499105620071642,1.8589206000006016,0.7789996834666442,0.44516542752512106,280,1.7499105620071642,0.7789996834666442,1,0,,,0
task_only,00026,280,280,0,0.0,0.9761904761904762,1.8132713975000132,1.9695729000000028,0.7111944722157404,0.3922162303978741,280,1.8132713975000132,0.7111944722157404,0,0,,,0
task_only,00027,280,280,0,0.0,1.0,0.8294057524999712,0.6145382000001973,0.6387007892457596,0.770070363414536,280,0.8294057524999712,0.6387007892457596,0,0,,,0
task_only,00028,280,280,0,0.0,0.9423076923076924,1.3134291525000208,1.2058047499995155,0.4591895671650359,0.34961121906804077,280,1.3134291525000208,0.4591895671650359,0,0,,,0
task_only,00029,280,280,0,0.0,0.9555555555555556,1.6650718675000202,1.6077869499986264,0.6650790069807151,0.39942961019411194,280,1.6650718675000202,0.6650790069807151,0,0,,,0
task_only,00030,280,280,2,0.007142857142857143,0.9803921568627452,1.7786209093525152,1.95003174999988,0.8136874134720847,0.4574822038768776,280,1.7786209093525152,0.8136874134720847,2,0,,,0
task_only,00032,280,280,0,0.0,0.9361702127659576,1.6495970510714024,1.576472250000279,0.6284984870583924,0.381001218843224,280,1.6495970510714024,0.6284984870583924,0,0,,,0
task_only,00033,280,280,0,0.0,1.0,1.3481114007142854,1.1724051999999574,0.5913191225630852,0.43862778866032864,280,1.3481114007142854,0.5913191225630852,0,0,,,0
task_only,00034,280,280,0,0.0,0.9069767441860463,1.7707605910719264,1.746617699995113,0.6496494064513961,0.36687591181263646,280,1.7707605910719264,0.6496494064513961,0,0,,,0
task_only,00035,280,280,1,0.0035714285714285713,0.9111111111111112,1.6816979494635567,1.5780607000051532,0.9763679187658707,0.5805845925407244,280,1.6816979494635567,0.9763679187658707,1,0,,,0
task_only,00036,280,280,1,0.0035714285714285713,0.94,1.4629337806458038,1.4233932000061031,0.5618521957892251,0.3840585289794857,280,1.4629337806458038,0.5618521957892251,1,0,,,0
task_only,00037,280,280,0,0.0,0.9767441860465116,1.3314757303566565,1.2104737000045134,0.5346300479773599,0.4015319511938464,280,1.3314757303566565,0.5346300479773599,0,0,,,0
task_only,00038,280,280,1,0.0035714285714285713,0.8936170212765957,1.7149866078853786,1.8856847000060952,0.8558312875741547,0.49903088667812756,280,1.7149866078853786,0.8558312875741547,1,0,,,0
task_only,00039,280,280,0,0.0,0.9545454545454546,1.624422771071217,1.5838073000195436,0.6646752198509904,0.4091762512124069,280,1.624422771071217,0.6646752198509904,0,0,,,0
task_only,00040,280,280,0,0.0,0.9347826086956522,1.6567741928567037,1.599313450002228,0.5889497223702748,0.3554797780588158,280,1.6567741928567037,0.5889497223702748,0,0,,,0
task_only,00041,280,280,1,0.0035714285714285713,0.875,1.4096022050201436,1.3137427000328898,0.5665703304178035,0.40193632529803475,280,1.4096022050201436,0.5665703304178035,1,0,,,0
task_only,00042,280,280,2,0.007142857142857143,0.951219512195122,1.668177846761164,1.659959250013344,0.8289259964575394,0.4969050500622181,280,1.668177846761164,0.8289259964575394,2,0,,,0
task_only,00043,280,280,0,0.0,0.9444444444444444,1.5529556489271013,1.5722972999938065,0.7231942689745435,0.4656889393294526,280,1.5529556489271013,0.7231942689745435,0,0,,,0
task_only,00044,280,280,0,0.0,0.9736842105263158,1.5944282632145976,1.627533750004659,0.7797050934727909,0.48901861028278115,280,1.5944282632145976,0.7797050934727909,0,0,,,0
task_only,00045,280,280,0,0.0,0.8666666666666667,1.692711890355817,1.6565985000052024,0.596007580527341,0.35210219998044506,280,1.692711890355817,0.596007580527341,0,0,,,0
task_only,00046,280,280,0,0.0,0.9591836734693876,1.8407264725020338,1.8254494499997236,1.0920875040080609,0.5932915728232154,280,1.8407264725020338,1.0920875040080609,0,0,,,0
task_only,00047,280,280,0,0.0,0.94,1.475776766787125,1.396629299997585,0.7193529367761795,0.48744020976984476,280,1.475776766787125,0.7193529367761795,0,0,,,0
task_only,00048,280,280,0,0.0,0.9310344827586208,1.5524825378583045,1.5098658000351861,0.6699685144090445,0.43154657013616776,280,1.5524825378583045,0.6699685144090445,0,0,,,0
task_only,00049,280,280,2,0.007142857142857143,0.9583333333333334,0.9475070500002861,0.41104425000958145,0.8787692608170753,0.9274540604387165,280,0.9475070500002861,0.8787692608170753,2,0,,,0
task_only,00050,280,280,0,0.0,0.9302325581395348,1.7581228371428632,1.7762066500001765,0.5230999437079442,0.29753321705213576,280,1.7581228371428632,0.5230999437079442,0,0,,,0
task_only,00051,280,280,1,0.0035714285714285713,0.9583333333333334,1.6239269698924539,1.639152899999317,0.9254968564309638,0.5699128554360149,280,1.6239269698924539,0.9254968564309638,1,0,,,0
task_only,00052,280,280,1,0.0035714285714285713,0.925,1.09609963225807,0.429131500000949,1.1391708667808722,1.039294999519406,280,1.09609963225807,1.1391708667808722,1,0,,,0
task_only,00053,280,280,0,0.0,0.9555555555555556,1.7126007014293074,1.7880943500204012,0.8115868452316395,0.47389145908576524,280,1.7126007014293074,0.8115868452316395,0,0,,,0
task_only,00054,280,280,4,0.014285714285714285,0.8367346938775511,1.575301258696962,1.35107259999495,1.6126938669724846,1.0237367983229142,280,1.575301258696962,1.6126938669724846,4,0,,,0
task_only,00055,280,280,1,0.0035714285714285713,0.9361702127659576,1.5389816480293188,1.488957300025504,0.7775684237015237,0.5052486653737605,280,1.5389816480293188,0.7775684237015237,1,0,,,0
task_only,00056,280,280,0,0.0,0.9807692307692308,1.5482282892842445,1.5421796000155155,0.4220931598011144,0.2726297941476387,280,1.5482282892842445,0.4220931598011144,0,0,,,0
task_only,00057,280,280,0,0.0,0.92,1.5064594807144853,1.4998745500051882,0.4989621103753459,0.33121508859879695,280,1.5064594807144853,0.4989621103753459,0,0,,,0
task_only,00058,280,280,0,0.0,0.9782608695652174,1.642975252499621,1.5854602999970666,0.6699285571113174,0.40775328544485906,280,1.642975252499621,0.6699285571113174,0,0,,,0
task_only,00059,280,280,0,0.0,0.9772727272727272,0.5078107621412657,0.2924611000053119,0.5957244129727564,1.1731228587216005,280,0.5078107621412657,0.5957244129727564,0,0,,,0
task_only,00060,280,280,0,0.0,0.9166666666666666,1.447181527142571,1.3787484999920707,0.6559165437180113,0.45323722796068616,280,1.447181527142571,0.6559165437180113,0,0,,,0
task_only,00061,280,280,4,0.014285714285714285,1.0,1.5790376394900216,1.632684549986152,0.7400370076995828,0.46866331060898014,280,1.5790376394900216,0.7400370076995828,4,0,,,0
task_only,00062,280,280,0,0.0,0.8297872340425532,1.5100447953571088,1.4609029999992345,0.6827662731441965,0.45214968141572903,280,1.5100447953571088,0.6827662731441965,0,0,,,0
task_only,00063,280,280,0,0.0,0.9111111111111112,1.4453246242858637,1.4002697999985685,0.46286940272652033,0.3202529002473922,280,1.4453246242858637,0.46286940272652033,0,0,,,0
task_only,00064,280,280,0,0.0,0.8541666666666666,1.7705681353564224,1.9396776000212412,0.8034750543853055,0.4537950493633857,280,1.7705681353564224,0.8034750543853055,0,0,,,0
task_only,00065,280,280,1,0.0035714285714285713,0.875,1.5450057605732948,1.441211099998327,0.6246943959337764,0.4043314347915281,280,1.5450057605732948,0.6246943959337764,1,0,,,0
task_only,00066,280,280,0,0.0,0.9487179487179488,1.2657979196428772,1.1581827499999235,0.5388616236262052,0.4257090450727202,280,1.2657979196428772,0.5388616236262052,0,0,,,0
task_only,00067,280,280,0,0.0,0.975609756097561,1.4903796528570639,1.4971759499985637,1.0017250930503512,0.6721274617041638,280,1.4903796528570639,1.0017250930503512,0,0,,,0
task_only,00068,280,280,0,0.0,0.9761904761904762,1.9406660282143484,1.8883316999999809,0.49096639829848154,0.25298860863258943,280,1.9406660282143484,0.49096639829848154,0,0,,,0
task_only,00069,280,280,0,0.0,0.951219512195122,1.6745815135714566,1.6596726499992656,0.8483448059646748,0.5066010815773136,280,1.6745815135714566,0.8483448059646748,0,0,,,0
task_only,00070,280,280,0,0.0,,1.4859579114291201,1.356723350007087,0.5164591460319499,0.3475597404607815,280,1.4859579114291201,0.5164591460319499,0,0,,,0
task_only,00071,280,280,0,0.0,0.975609756097561,1.4903796528570639,1.4971759499985637,1.0017250930503512,0.6721274617041638,280,1.4903796528570639,1.0017250930503512,0,0,,,0
task_only,00072,280,280,2,0.007142857142857143,1.0,1.2881246345325392,1.2198919499933254,0.8913586882960025,0.6919817107755857,280,1.2881246345325392,0.8913586882960025,2,0,,,0
