dataset,subject_id,n_trials,target_n,target_acc,target_rt_mean,target_rt_median,target_rt_std,target_resp_o,target_resp_s,target_resp_n,lure_n,lure_acc,lure_rt_mean,lure_rt_median,lure_rt_std,lure_resp_o,lure_resp_s,lure_resp_n,foil_n,foil_acc,foil_rt_mean,foil_rt_median,foil_rt_std,foil_resp_o,foil_resp_s,foil_resp_n,LDI,REC,overall_acc,pre_target_acc,pre_target_rt,pre_lure_acc,pre_lure_rt,mid_target_acc,mid_target_rt,mid_lure_acc,mid_lure_rt,post_target_acc,post_target_rt,post_lure_acc,post_lure_rt,Objects_target_acc,Objects_target_cr,Objects_lure_acc,Objects_lure_cr,Scenes_target_acc,Scenes_target_cr,Scenes_lure_acc,Scenes_lure_cr
both,00015,150,60,0.7166666666666667,2.0696495500000234,1.6883778500000517,1.5366531744569116,0.7166666666666667,0.2,0.08333333333333333,60,0.38333333333333336,2.1338760483333012,1.5893289999996796,1.7728429066869966,0.35,0.38333333333333336,0.26666666666666666,30,0.8,3.2944008299999497,1.610155050000003,7.101523136886313,0.03333333333333333,0.16666666666666666,0.8,0.03333333333333338,0.6833333333333333,0.6,0.65,2.4423462200000587,0.3,2.112596880000001,0.65,1.6794409350000479,0.35,2.5323480249999877,0.85,2.0871614949999637,0.5,1.7566832399999157,0.6451612903225806,0.6451612903225806,0.2413793103448276,0.2413793103448276,0.7931034482758621,0.7931034482758621,0.5161290322580645,0.5161290322580645
both,00016,150,60,0.7166666666666667,2.5000501183332138,1.9896067500012575,1.5099261978048688,0.7166666666666667,0.13333333333333333,0.15,60,0.65,2.8310259450000257,2.6912380499998108,1.1436216525317537,0.25,0.65,0.1,30,0.8666666666666667,2.6436316600001493,2.024007199997868,1.2697781867486595,0.03333333333333333,0.1,0.8666666666666667,0.4,0.6833333333333333,0.72,0.75,3.033150844999727,0.5,2.9347458950001966,0.8,2.0952223150001372,0.8,2.729432395000367,0.6,2.371777194999777,0.65,2.828899544999513,0.71875,0.71875,0.8571428571428571,0.8571428571428571,0.7142857142857143,0.7142857142857143,0.46875,0.46875
both,00017,150,60,0.5666666666666667,3.287484493333371,1.7376686000006885,5.57121921527627,0.5666666666666667,0.31666666666666665,0.11666666666666667,60,0.55,2.380063335000159,1.720775900001172,1.954392222480721,0.15,0.55,0.3,30,0.8333333333333334,4.071501759999592,2.869231849999778,4.974235909329382,0.0,0.16666666666666666,0.8333333333333334,0.4,0.5666666666666667,0.6133333333333333,0.55,2.2069430749994354,0.45,2.7919590700003027,0.5,5.269169390000752,0.55,2.013954669999657,0.65,2.3863410149999256,0.65,2.334276265000517,0.6,0.6,0.6,0.6,0.5428571428571428,0.5428571428571428,0.48,0.48
both,00018,150,60,0.7666666666666667,0.9524033483340948,0.8798835500056157,0.2773547921040677,0.7666666666666667,0.18333333333333332,0.05,60,0.48333333333333334,1.1302226866670633,1.0615951000072528,0.37993367877094464,0.45,0.48333333333333334,0.06666666666666667,30,0.36666666666666664,1.171519429999171,1.0486641500028782,0.394510160909037,0.0,0.6333333333333333,0.36666666666666664,0.033333333333333326,0.7666666666666667,0.5733333333333334,0.8,0.9169604050024646,0.5,1.1423575249988063,0.8,0.9220120050005789,0.35,1.0845371850009542,0.7,1.018237634999241,0.6,1.1637733500014291,0.7241379310344828,0.7241379310344828,0.6129032258064516,0.6129032258064516,0.8064516129032258,0.8064516129032258,0.3448275862068966,0.3448275862068966
both,00019,150,60,0.5166666666666667,2.963002956666363,2.2881707999986247,1.861522534132641,0.5166666666666667,0.25,0.23333333333333334,60,0.35,2.6752311650020903,2.227179850000539,1.4669709849868988,0.4166666666666667,0.35,0.23333333333333334,30,0.8,3.0297921033353004,2.96208939999633,1.6177662747329866,0.0,0.2,0.8,-0.06666666666666671,0.5166666666666667,0.5066666666666667,0.5,2.4215599249968363,0.4,2.822245820002718,0.55,3.0723058050018155,0.25,2.762095695001335,0.5,3.3951431400004366,0.4,2.4413519800022185,0.6551724137931034,0.6551724137931034,0.3870967741935484,0.3870967741935484,0.3870967741935484,0.3870967741935484,0.3103448275862069,0.3103448275862069
both,00020,150,60,0.38333333333333336,1.4351149449983496,1.1671633000005386,0.8448380387933105,0.38333333333333336,0.4666666666666667,0.15,60,0.6,1.547198286667117,1.4388593999974546,0.7678505233156004,0.18333333333333332,0.6,0.21666666666666667,30,0.5333333333333333,1.444282546668061,1.260112450007,0.6880445065054981,0.1,0.36666666666666664,0.5333333333333333,0.41666666666666663,0.2833333333333333,0.5,0.45,1.271002645000408,0.65,1.5381799899994804,0.25,1.2328953099968203,0.6,1.5965253500013206,0.45,1.8014468799978203,0.55,1.5068895200005499,0.40625,0.40625,0.6785714285714286,0.6785714285714286,0.35714285714285715,0.35714285714285715,0.53125,0.53125
both,00021,150,60,0.6,1.414595138333372,1.2611793500000203,0.5929108630188855,0.6,0.35,0.05,60,0.3333333333333333,1.979014386666673,1.4390450999999302,1.417755788701807,0.5333333333333333,0.3333333333333333,0.13333333333333333,30,0.7,2.4375356833333552,1.6920658500000627,2.6500383675525456,0.13333333333333333,0.16666666666666666,0.7,-0.2,0.4666666666666667,0.5133333333333333,0.6,1.3957310100000313,0.45,2.019295750000049,0.65,1.4226884400000244,0.25,2.2927848950000227,0.55,1.42536596500006,0.3,1.6249625149999474,0.5333333333333333,0.5333333333333333,0.3,0.3,0.6666666666666666,0.6666666666666666,0.36666666666666664,0.36666666666666664
both,00022,150,60,0.6333333333333333,2.8556889983333007,1.8818000999999642,2.0965454183789056,0.6333333333333333,0.18333333333333332,0.18333333333333332,60,0.31666666666666665,3.8040177099999863,2.3860427999999274,4.374230302961021,0.4666666666666667,0.31666666666666665,0.21666666666666667,30,0.6,4.1163812966666455,3.5236035499999616,2.895961791835255,0.03333333333333333,0.36666666666666664,0.6,-0.15000000000000002,0.6,0.5,0.55,3.420662324999955,0.4,3.210683759999995,0.85,2.358518464999952,0.3,3.2924381199999857,0.5,2.787886204999995,0.25,4.908931249999978,0.75,0.75,0.32142857142857145,0.32142857142857145,0.5,0.5,0.3125,0.3125
both,00023,150,60,0.5166666666666667,1.4802991283333238,1.1659649999996873,0.8172017784194949,0.5166666666666667,0.4,0.08333333333333333,60,0.6,1.7089737400000256,1.4442469499999788,1.1195087802046824,0.2,0.6,0.2,30,0.7333333333333333,1.5304509900000085,1.3898797499998636,0.7082908373701214,0.03333333333333333,0.23333333333333334,0.7333333333333333,0.39999999999999997,0.4833333333333334,0.5933333333333334,0.7,1.502911630000017,0.75,1.9099610300000223,0.45,1.4278177449999248,0.6,1.746675155000048,0.4,1.5101680100000294,0.45,1.4702850350000063,0.6363636363636364,0.6363636363636364,0.6666666666666666,0.6666666666666666,0.37037037037037035,0.37037037037037035,0.5454545454545454,0.5454545454545454
both,00024,150,60,0.8666666666666667,1.3101994800000436,1.0709385000000111,0.83666912030096,0.8666666666666667,0.13333333333333333,0.0,60,0.38333333333333336,1.9183481916666552,1.6039004499998555,1.0403853763439126,0.5333333333333333,0.38333333333333336,0.08333333333333333,30,0.7333333333333333,2.9743254799999703,1.9359011000001376,2.0362251194023524,0.0,0.26666666666666666,0.7333333333333333,-0.14999999999999997,0.8666666666666667,0.6466666666666666,0.8,1.0580210149999858,0.35,1.9659415499999795,0.9,1.3567556100000728,0.45,2.1073912000001203,0.9,1.5158218150000722,0.35,1.6817118249998657,0.9142857142857143,0.9142857142857143,0.4,0.4,0.8,0.8,0.37142857142857144,0.37142857142857144
both,00025,150,60,0.65,1.6254505016663339,1.4585938500003977,0.6833730331884216,0.65,0.2,0.15,60,0.43333333333333335,1.6581596783333832,1.4688026500007254,0.7708940180984067,0.25,0.43333333333333335,0.31666666666666665,30,0.8,1.2508073900002878,1.113866900001085,0.44570175835334186,0.06666666666666667,0.13333333333333333,0.8,0.18333333333333335,0.5833333333333334,0.5933333333333334,0.55,1.647561494999718,0.5,1.8059019849999458,0.8,1.4661142149996522,0.4,1.4947870949999924,0.6,1.7626757949996317,0.4,1.673789955000211,0.6666666666666666,0.6666666666666666,0.36666666666666664,0.36666666666666664,0.6333333333333333,0.6333333333333333,0.5,0.5
both,00026,150,60,0.5,2.229905574999793,1.9369429499965918,1.134353728155164,0.5,0.31666666666666665,0.18333333333333332,60,0.5833333333333334,2.4256024333333093,1.7428188499980024,1.8027271829416724,0.08333333333333333,0.5833333333333334,0.3333333333333333,30,0.8,1.933747960000134,1.5582081500033382,1.1729671982179903,0.03333333333333333,0.16666666666666666,0.8,0.5,0.4666666666666667,0.5933333333333334,0.6,2.1377096499996697,0.6,2.49800180500024,0.55,2.455932424999264,0.45,2.1902338099996994,0.35,2.096074650000446,0.7,2.5885716849999882,0.6666666666666666,0.6666666666666666,0.6060606060606061,0.6060606060606061,0.36363636363636365,0.36363636363636365,0.5555555555555556,0.5555555555555556
both,00027,150,60,0.85,1.2244069533333723,0.8929662000001599,1.2291581188751068,0.85,0.11666666666666667,0.03333333333333333,60,0.6166666666666667,1.2460617049999845,1.0879071999996768,0.6413787814420421,0.2833333333333333,0.6166666666666667,0.1,30,0.8,0.99007016999999,0.862099550000039,0.3606947895810637,0.06666666666666667,0.13333333333333333,0.8,0.33333333333333337,0.7833333333333333,0.7466666666666667,0.9,1.114745840000046,0.5,1.4606767850000097,0.8,1.4222174950000408,0.65,1.1498451849999811,0.85,1.1362575250000304,0.7,1.1276631449999628,0.8214285714285714,0.8214285714285714,0.53125,0.53125,0.875,0.875,0.7142857142857143,0.7142857142857143
both,00028,150,60,0.5833333333333334,2.423400389999915,1.8620931499999642,1.834268907658734,0.5833333333333334,0.25,0.16666666666666666,60,0.4,2.5137287183333075,1.7336510000004637,3.0604920591848317,0.36666666666666664,0.4,0.23333333333333334,30,0.8,2.066898633333343,1.4856013499993423,1.3005134200927218,0.06666666666666667,0.13333333333333333,0.8,0.03333333333333338,0.5166666666666667,0.5533333333333333,0.6,1.9998523650002427,0.35,2.1632903650001025,0.65,2.0386188599994055,0.4,3.3085732499999723,0.5,3.2317299450000974,0.45,2.069322539999848,0.7333333333333333,0.7333333333333333,0.5,0.5,0.43333333333333335,0.43333333333333335,0.3,0.3
both,00029,150,60,0.6,2.55928855000008,1.7973087499995017,1.979847720455924,0.6,0.35,0.05,60,0.8333333333333334,2.224856401666754,1.7808577999985573,1.5299417483267959,0.08333333333333333,0.8333333333333334,0.08333333333333333,30,0.7666666666666667,2.5983410366668975,2.41700850000052,1.477478407238032,0.0,0.23333333333333334,0.7666666666666667,0.75,0.6,0.7266666666666667,0.6,2.3148909899997308,0.9,2.301206790000106,0.65,2.0106988150004326,0.95,2.2777192800000194,0.55,3.3522758450000767,0.65,2.0956431350001368,0.6666666666666666,0.6666666666666666,0.9259259259259259,0.9259259259259259,0.5185185185185185,0.5185185185185185,0.7575757575757576,0.7575757575757576
both,00030,150,60,0.36666666666666664,2.4446879200000238,1.8876847000001362,1.8214598240542808,0.36666666666666664,0.48333333333333334,0.15,60,0.36666666666666664,2.2152039516667323,1.8796635499998047,1.0201132592270103,0.2,0.36666666666666664,0.43333333333333335,30,0.8666666666666667,2.407274903333382,1.74548569999979,1.517237207963328,0.0,0.13333333333333333,0.8666666666666667,0.16666666666666663,0.36666666666666664,0.4666666666666667,0.4,1.9206102600000576,0.4,2.0166180899998833,0.4,2.5815173150000192,0.4,2.2845641300002173,0.3,2.831936184999995,0.3,2.344429635000097,0.625,0.625,0.39285714285714285,0.39285714285714285,0.07142857142857142,0.07142857142857142,0.34375,0.34375
both,00031,150,60,0.6333333333333333,1.9395405333295155,1.7639330999809317,0.7401814104876093,0.6333333333333333,0.2833333333333333,0.08333333333333333,60,0.6166666666666667,2.012291345001237,1.8167355499754194,0.794548025586181,0.21666666666666667,0.6166666666666667,0.16666666666666666,30,0.8666666666666667,1.7549452500010374,1.6078420499979984,0.8168003537986808,0.0,0.13333333333333333,0.8666666666666667,0.4,0.6333333333333333,0.6733333333333333,0.7,1.7975491649995092,0.55,2.1973205350048373,0.55,2.2846041149925442,0.8,1.8320627099950797,0.65,1.736468319996493,0.5,2.007490790003794,0.6129032258064516,0.6129032258064516,0.8620689655172413,0.8620689655172413,0.6551724137931034,0.6551724137931034,0.3870967741935484,0.3870967741935484
both,00032,150,60,0.8,1.4455028916672745,1.1594751500088023,1.0547894192989329,0.8,0.16666666666666666,0.03333333333333333,60,0.35,1.680944771667661,1.22384515000158,1.2262197358810885,0.5333333333333333,0.35,0.11666666666666667,30,0.6333333333333333,2.143812479999906,1.8099282500043046,1.1453905687484334,0.0,0.36666666666666664,0.6333333333333333,-0.18333333333333335,0.8,0.5866666666666667,0.8,1.8133814600019833,0.3,1.7006970150010603,0.9,1.3820495150008356,0.35,1.5933369950005727,0.7,1.1410776999990049,0.4,1.7488003050013503,0.8275862068965517,0.8275862068965517,0.3548387096774194,0.3548387096774194,0.7741935483870968,0.7741935483870968,0.3448275862068966,0.3448275862068966
both,00033,300,120,0.475,2.2078791300000677,1.441079449999961,5.054820921990348,0.475,0.30833333333333335,0.21666666666666667,120,0.4166666666666667,2.1846175658330895,1.6385829000009835,1.8585421477434656,0.24166666666666667,0.4166666666666667,0.3416666666666667,60,0.6833333333333333,2.035676523333071,1.4702186499998788,1.7184586746726487,0.016666666666666666,0.3,0.6833333333333333,0.17500000000000002,0.4583333333333333,0.49333333333333335,0.4,1.914322547500251,0.4,1.8966989075005585,0.525,3.1130746799993174,0.45,2.342288199999848,0.5,1.596240162500635,0.4,2.3148655899988624,0.543859649122807,0.543859649122807,0.42857142857142855,0.42857142857142855,0.4126984126984127,0.4126984126984127,0.40350877192982454,0.40350877192982454
both,00034,150,60,0.5166666666666667,2.453736611666682,1.772881149998284,1.7869844653914253,0.5166666666666667,0.4,0.08333333333333333,60,0.65,2.501631631664835,1.8014738499987288,2.4027850635988135,0.15,0.65,0.2,30,0.8666666666666667,2.25235449999988,1.832645299997239,1.2776494505444442,0.03333333333333333,0.1,0.8666666666666667,0.5,0.4833333333333334,0.64,0.65,2.1880937049994826,0.55,3.3279612799989993,0.55,2.794573250001122,0.7,2.2940861749964823,0.35,2.378542879999441,0.7,1.8828474399990227,0.4838709677419355,0.4838709677419355,0.7931034482758621,0.7931034482758621,0.5517241379310345,0.5517241379310345,0.5161290322580645,0.5161290322580645
both,00036,150,60,0.6333333333333333,1.4701565383336856,1.2171545500023058,0.7967511650962733,0.6333333333333333,0.18333333333333332,0.18333333333333332,60,0.3333333333333333,1.856992278333443,1.5971382499992615,0.8926687108442791,0.43333333333333335,0.3333333333333333,0.23333333333333334,30,0.5666666666666667,1.874955366664411,1.503390899990336,1.1547060558662352,0.06666666666666667,0.36666666666666664,0.5666666666666667,-0.10000000000000003,0.5666666666666667,0.5,0.55,1.3049317300043186,0.25,1.652558864999446,0.65,1.586232744998415,0.45,2.1419198100018546,0.7,1.5193051399983233,0.3,1.776498159999028,0.7666666666666667,0.7666666666666667,0.4,0.4,0.5,0.5,0.26666666666666666,0.26666666666666666
both,00037,150,60,0.85,2.1486006966651376,1.2190270499995677,1.9202847689766034,0.85,0.1,0.05,60,0.18333333333333332,2.6352402183324255,2.02153939998243,1.8665902082264538,0.5833333333333334,0.18333333333333332,0.23333333333333334,30,0.6,4.230453553333064,3.099324599985266,3.725173895463696,0.2,0.2,0.6,-0.4,0.6499999999999999,0.5333333333333333,0.95,1.7975676299989574,0.2,2.5837989849984297,0.85,2.334349389997078,0.25,3.0167630950003512,0.75,2.3138850699993783,0.1,2.305158574998495,0.96875,0.96875,0.07142857142857142,0.07142857142857142,0.7142857142857143,0.7142857142857143,0.28125,0.28125
both,00038,150,60,0.43333333333333335,1.5758664099994348,1.224464300001273,0.8749133353706262,0.43333333333333335,0.43333333333333335,0.13333333333333333,60,0.5166666666666667,1.3153557266656815,1.2304769499896793,0.4558503701989237,0.1,0.5166666666666667,0.38333333333333336,30,0.8666666666666667,1.6157017866663712,0.93624355000793,3.5514860217383495,0.0,0.13333333333333333,0.8666666666666667,0.41666666666666674,0.43333333333333335,0.5533333333333333,0.45,1.5939453049999428,0.45,1.3622368199998163,0.4,1.3025808600010351,0.65,1.3222966749977787,0.45,1.8310730649973266,0.45,1.2615336849994492,0.5757575757575758,0.5757575757575758,0.48148148148148145,0.48148148148148145,0.25925925925925924,0.25925925925925924,0.5454545454545454,0.5454545454545454
both,00039,150,60,0.8333333333333334,1.9801853399985703,1.2876525999745354,1.7479934404258655,0.8333333333333334,0.1,0.06666666666666667,60,0.36666666666666664,3.5187477899957837,1.9243137500016014,7.1958480466519985,0.5,0.36666666666666664,0.13333333333333333,30,0.8,2.082173896660485,1.3271058500104118,1.6968907762751937,0.1,0.1,0.8,-0.13333333333333336,0.7333333333333334,0.64,0.8,1.8811230099992826,0.35,1.9948371000005864,0.85,1.8491437649965519,0.25,6.19203047498886,0.85,2.2102892449998763,0.5,2.3693757949979046,0.9310344827586207,0.9310344827586207,0.3870967741935484,0.3870967741935484,0.7419354838709677,0.7419354838709677,0.3448275862068966,0.3448275862068966
both,00040,150,60,0.7666666666666667,2.1313542166666593,1.6458937999850605,1.3439306974905263,0.7666666666666667,0.11666666666666667,0.11666666666666667,60,0.31666666666666665,2.115207241666697,1.8027470499946503,1.028737878313383,0.38333333333333336,0.31666666666666665,0.3,30,0.9,2.622379566667951,2.0796000999980606,1.6438269990405594,0.0,0.1,0.9,-0.06666666666666671,0.7666666666666667,0.6133333333333333,0.65,2.6887283200005188,0.4,2.2977281050014424,0.9,1.957675430002564,0.35,1.8416154600010486,0.75,1.7476588999968954,0.2,2.2062781599976007,0.8571428571428571,0.8571428571428571,0.3125,0.3125,0.6875,0.6875,0.32142857142857145,0.32142857142857145
both,00041,150,60,0.4666666666666667,3.2201459916671107,2.515274199999112,1.9391998924948421,0.4666666666666667,0.43333333333333335,0.1,60,0.8333333333333334,3.0889824216668784,2.317864950000512,2.27941345009218,0.08333333333333333,0.8333333333333334,0.08333333333333333,30,0.8,2.8091546233335976,2.3349814499961212,1.4972728182116812,0.0,0.2,0.8,0.75,0.4666666666666667,0.68,0.7,3.951952130000427,0.85,3.695434715000374,0.3,3.0743192600006295,0.9,2.4791353900000104,0.4,2.6341665850002753,0.75,3.092377160000251,0.75,0.75,0.8611111111111112,0.8611111111111112,0.2777777777777778,0.2777777777777778,0.7916666666666666,0.7916666666666666
both,00042,150,60,0.5333333333333333,2.034968116666035,1.709941400000389,1.1676614822942029,0.5333333333333333,0.25,0.21666666666666667,60,0.25,1.9400804299998222,1.6199206499986758,1.0389101393643219,0.25,0.25,0.5,30,0.8,1.6881682500005506,1.2567972000033478,0.9487129379299483,0.06666666666666667,0.13333333333333333,0.8,0.0,0.4666666666666667,0.47333333333333333,0.65,1.716136749999714,0.15,1.8164184799996292,0.65,2.100855714999125,0.3,1.9466286899998522,0.3,2.2879118849992666,0.3,2.0571941199999855,0.6666666666666666,0.6666666666666666,0.2,0.2,0.4,0.4,0.3,0.3
both,00043,150,60,0.5166666666666667,2.504994626668728,2.112847700002021,1.499976914910899,0.5166666666666667,0.3333333333333333,0.15,60,0.3,3.233081250000396,2.463372550002532,3.946868922420564,0.2,0.3,0.5,30,0.9666666666666667,2.0536812099987096,1.6580711999849882,1.3794652582154725,0.0,0.03333333333333333,0.9666666666666667,0.09999999999999998,0.5166666666666667,0.52,0.55,2.287628030005726,0.3,4.318782880000072,0.6,2.5960412350003024,0.3,2.3852307700013626,0.4,2.631314615000156,0.3,2.995230099999753,0.5526315789473685,0.5526315789473685,0.5909090909090909,0.5909090909090909,0.45454545454545453,0.45454545454545453,0.13157894736842105,0.13157894736842105
both,00044,150,60,0.85,2.108677193333036,1.3663408000065829,2.363789090701615,0.85,0.11666666666666667,0.03333333333333333,60,0.38333333333333336,2.588473861665989,1.9140662999925553,2.0956341686688607,0.5833333333333334,0.38333333333333336,0.03333333333333333,30,0.6333333333333333,4.423009383333071,2.993741799997224,3.3732030008579055,0.03333333333333333,0.3333333333333333,0.6333333333333333,-0.2,0.8166666666666667,0.62,0.9,1.6055615899989788,0.4,2.4110423449972584,0.95,1.8061494499990658,0.4,2.503150515001471,0.7,2.914320540001063,0.35,2.851228724999237,0.8620689655172413,0.8620689655172413,0.3870967741935484,0.3870967741935484,0.8387096774193549,0.8387096774193549,0.3793103448275862,0.3793103448275862
both,00045,150,60,0.6,1.7089164633332985,1.2674226500093937,1.1071778205186944,0.6,0.13333333333333333,0.26666666666666666,60,0.3333333333333333,2.01842363000081,1.8494839999912074,1.1800679259572318,0.3,0.3333333333333333,0.36666666666666664,30,0.9,1.90283944333302,1.3832278000045335,1.2814055522743557,0.0,0.1,0.9,0.033333333333333326,0.6,0.5533333333333333,0.55,1.719167094999284,0.35,1.805111995001789,0.5,1.9920551799994428,0.3,2.2452432649995897,0.75,1.4155271150011686,0.35,2.004915630001051,0.78125,0.78125,0.4642857142857143,0.4642857142857143,0.39285714285714285,0.39285714285714285,0.21875,0.21875
both,00046,150,60,0.7333333333333333,2.4563983433336642,1.8743456000229342,1.7630056566937728,0.7333333333333333,0.11666666666666667,0.15,60,0.3333333333333333,2.5485075549998633,2.06938979998813,1.536975001243665,0.35,0.3333333333333333,0.31666666666666665,30,0.6333333333333333,2.5563026866642757,1.4552252499997849,3.4898232343177096,0.1,0.26666666666666666,0.6333333333333333,-0.016666666666666663,0.6333333333333333,0.5533333333333333,0.75,2.6199776800058316,0.45,2.340209460000915,0.8,2.353830804997415,0.3,2.392500334998476,0.65,2.395386544997746,0.25,2.912812870000198,0.7931034482758621,0.7931034482758621,0.2903225806451613,0.2903225806451613,0.6774193548387096,0.6774193548387096,0.3793103448275862,0.3793103448275862
both,00047,150,60,0.65,2.3953684183303268,1.556094449973898,1.6791550931784778,0.65,0.2833333333333333,0.06666666666666667,60,0.6833333333333333,2.640508226661283,1.8563361500273459,2.852284880237891,0.21666666666666667,0.6833333333333333,0.1,30,0.6666666666666666,2.6589464933339815,1.962150550010847,1.7117368933230819,0.03333333333333333,0.3,0.6666666666666666,0.4666666666666667,0.6166666666666667,0.6666666666666666,0.6,2.045803354991949,0.75,2.415699384993059,0.7,2.576764370006276,0.8,3.155854784991243,0.65,2.5635375299927547,0.5,2.3499705099995483,0.7096774193548387,0.7096774193548387,0.6551724137931034,0.6551724137931034,0.5862068965517241,0.5862068965517241,0.7096774193548387,0.7096774193548387
both,00049,150,60,0.43333333333333335,2.2477760300049945,1.7872728000220377,1.577768363369122,0.43333333333333335,0.36666666666666664,0.2,60,0.4666666666666667,3.143291913338665,2.1302506999927573,2.5759394114277367,0.26666666666666666,0.4666666666666667,0.26666666666666666,30,0.8,2.433404553330426,2.165520849986933,1.2137866570191596,0.0,0.2,0.8,0.2,0.43333333333333335,0.52,0.45,2.1247951500001365,0.4,3.220071615005145,0.4,2.318378765007947,0.5,3.1389018700050655,0.45,2.300154175006901,0.5,3.070902255005785,0.3333333333333333,0.3333333333333333,0.37037037037037035,0.37037037037037035,0.5555555555555556,0.5555555555555556,0.5454545454545454,0.5454545454545454
both,00050,150,60,0.6833333333333333,1.6801572133369822,1.1748546500166412,1.4106870454101703,0.6833333333333333,0.25,0.06666666666666667,60,0.5333333333333333,1.7718143999993723,1.3904566499695648,1.0821479919986605,0.25,0.5333333333333333,0.21666666666666667,30,0.8666666666666667,1.879923180001788,1.3612836999818683,1.4416013281281739,0.0,0.13333333333333333,0.8666666666666667,0.2833333333333333,0.6833333333333333,0.66,0.75,1.7432896950049326,0.6,1.8023357500002022,0.65,1.4096549050009344,0.45,1.8436037649982608,0.65,1.8875270400050794,0.55,1.669503684999654,0.7586206896551724,0.7586206896551724,0.45161290322580644,0.45161290322580644,0.6129032258064516,0.6129032258064516,0.6206896551724138,0.6206896551724138
both,00051,150,60,0.6333333333333333,2.546020094997948,2.1475262500171084,1.384275680591726,0.6333333333333333,0.2833333333333333,0.08333333333333333,60,0.5833333333333334,2.953414074998,2.2527342999819666,1.7899281339377366,0.18333333333333332,0.5833333333333334,0.23333333333333334,30,0.8,2.4041573466713695,2.039361849980196,1.157901623702633,0.0,0.2,0.8,0.4,0.6333333333333333,0.6466666666666666,0.55,2.1346443999995244,0.55,2.689388424999197,0.8,2.8145742799912115,0.6,2.886931775000994,0.55,2.688841605003108,0.6,3.283922024993808,0.6206896551724138,0.6206896551724138,0.6129032258064516,0.6129032258064516,0.6451612903225806,0.6451612903225806,0.5517241379310345,0.5517241379310345
both,00052,150,60,0.7333333333333333,1.2752001916708346,0.9078741000266746,0.8055855795953303,0.7333333333333333,0.11666666666666667,0.15,60,0.25,1.7153590100060683,1.4155702499847393,1.0882236137533365,0.5166666666666667,0.25,0.23333333333333334,30,0.7,1.7464020633371546,1.4754513499792665,0.9354719946017983,0.26666666666666666,0.03333333333333333,0.7,-0.2666666666666667,0.4666666666666666,0.5333333333333333,0.7,1.3275210100080586,0.2,1.7913302600121823,0.6,1.2000214200030315,0.15,1.4941078599949833,0.9,1.2980581450014141,0.4,1.8606389100110392,0.9629629629629629,0.9629629629629629,0.30303030303030304,0.30303030303030304,0.5454545454545454,0.5454545454545454,0.18518518518518517,0.18518518518518517
both,00053,150,60,0.5833333333333334,3.7093953866666802,3.1162365500058513,2.323559585459908,0.5833333333333334,0.4,0.016666666666666666,60,0.7166666666666667,3.529165040004106,2.5649642000207677,2.641773609987609,0.13333333333333333,0.7166666666666667,0.15,30,0.6,3.5341995133300466,2.8502537999884225,2.235997617441242,0.0,0.4,0.6,0.5833333333333334,0.5833333333333334,0.64,0.4,3.3676389899948846,0.55,4.53184388501104,0.75,3.663327595003648,0.85,2.7407542399974774,0.6,4.097219575001509,0.75,3.3148969950038008,0.6206896551724138,0.6206896551724138,0.8709677419354839,0.8709677419354839,0.5483870967741935,0.5483870967741935,0.5517241379310345,0.5517241379310345
both,00054,150,60,0.85,1.518979841664744,1.2194421000021975,0.843436684072021,0.85,0.1,0.05,60,0.45,1.6491665583327024,1.4293031499837525,0.7174251726582026,0.5,0.45,0.05,30,0.7,1.987983570001476,1.4617140499758534,1.2933436927379458,0.03333333333333333,0.26666666666666666,0.7,-0.04999999999999999,0.8166666666666667,0.66,0.85,1.7856751749990507,0.55,1.630984269999317,0.9,1.4145498249970843,0.5,1.6775579399982234,0.8,1.3567145249980967,0.3,1.638957465000567,0.8214285714285714,0.8214285714285714,0.5,0.5,0.875,0.875,0.39285714285714285,0.39285714285714285
both,00055,150,60,0.6,1.6881239466667466,1.3939467500003957,0.9999913904659459,0.6,0.1,0.3,60,0.23333333333333334,2.1994186799997504,1.4798184999999648,2.458344617639762,0.35,0.23333333333333334,0.4166666666666667,30,0.5666666666666667,1.7399496633333305,1.453671950000171,1.0827491191369296,0.36666666666666664,0.06666666666666667,0.5666666666666667,-0.11666666666666664,0.23333333333333334,0.44666666666666666,0.55,1.6479047550000359,0.2,2.81551475499964,0.7,1.6635016449999056,0.1,1.6984593849999328,0.55,1.7529654400002983,0.4,2.084281899999678,0.6129032258064516,0.6129032258064516,0.2413793103448276,0.2413793103448276,0.5862068965517241,0.5862068965517241,0.22580645161290322,0.22580645161290322
both,00056,150,60,0.65,1.7644080266715416,1.3610093500174116,1.1534494047163086,0.65,0.3,0.05,60,0.4666666666666667,1.8081277433307454,1.638727999990806,0.6700164794248515,0.25,0.4666666666666667,0.2833333333333333,30,0.7333333333333333,1.6158705233363435,1.401655900030164,0.687496863653958,0.03333333333333333,0.23333333333333334,0.7333333333333333,0.21666666666666667,0.6166666666666667,0.5933333333333334,0.65,1.765712960009114,0.4,1.5536624200030928,0.7,2.0098642800032396,0.6,2.0477130749932257,0.6,1.5176468400022713,0.4,1.8230077349959175,0.75,0.75,0.5,0.5,0.5357142857142857,0.5357142857142857,0.4375,0.4375
both,00057,150,60,0.6333333333333333,1.9315909916669625,1.624649399998816,1.0464762524184144,0.6333333333333333,0.2833333333333333,0.08333333333333333,60,0.55,1.744392959999762,1.4063752999991266,0.9550359568913458,0.16666666666666666,0.55,0.2833333333333333,30,0.8,1.8837544966662487,1.5628882500004693,1.1982002544831536,0.1,0.1,0.8,0.3833333333333334,0.5333333333333333,0.6333333333333333,0.7,1.854969720000372,0.45,1.6063401649993465,0.6,1.9390332550003222,0.8,2.09280030000009,0.6,2.0007700000001933,0.4,1.5340384149998498,0.625,0.625,0.6071428571428571,0.6071428571428571,0.6428571428571429,0.6428571428571429,0.5,0.5
both,00058,150,60,0.5833333333333334,6.852244458331067,5.140987399965525,4.822261287202247,0.5833333333333334,0.31666666666666665,0.1,60,0.36666666666666664,6.6560622333287025,5.10326824997901,4.705634518109028,0.5,0.36666666666666664,0.13333333333333333,30,0.6666666666666666,7.123582013337485,5.71671404998051,4.3251695068092015,0.06666666666666667,0.26666666666666666,0.6666666666666666,-0.13333333333333336,0.5166666666666667,0.5133333333333333,0.65,6.7487739250005685,0.4,7.150617169993348,0.6,6.904455434993724,0.3,6.851784019998741,0.5,6.903504014998907,0.4,5.965785509994021,0.4166666666666667,0.4166666666666667,0.4722222222222222,0.4722222222222222,0.6944444444444444,0.6944444444444444,0.20833333333333334,0.20833333333333334
both,00059,150,60,0.7166666666666667,1.769242606665163,1.475494050013367,1.0599433145808252,0.7166666666666667,0.2,0.08333333333333333,60,0.55,2.2971296383339603,1.970588800002588,0.9986430136695119,0.35,0.55,0.1,30,0.8666666666666667,1.9637029033348274,1.6153863999934401,1.0221219483602828,0.0,0.13333333333333333,0.8666666666666667,0.20000000000000007,0.7166666666666667,0.68,0.8,1.567364515000372,0.8,2.147101179999299,0.7,1.7248113399982685,0.5,2.2934299499960615,0.65,2.015551964996848,0.35,2.4508577850065194,0.8275862068965517,0.8275862068965517,0.7096774193548387,0.7096774193548387,0.6129032258064516,0.6129032258064516,0.3793103448275862,0.3793103448275862
both,00060,150,60,0.6,2.50197279166667,1.9368723000000045,1.6494361650209197,0.6,0.25,0.15,60,0.48333333333333334,2.189836596666661,1.7739930499999446,1.1265090982173498,0.2,0.48333333333333334,0.31666666666666665,30,0.8666666666666667,2.337951623333356,2.143536799999765,1.2908734058962987,0.0,0.13333333333333333,0.8666666666666667,0.2833333333333333,0.6,0.6066666666666667,0.65,2.348603379999986,0.6,2.6424929900000054,0.65,2.4379498850000116,0.45,1.864889859999971,0.5,2.7193651100000125,0.4,2.0621269400000073,0.6551724137931034,0.6551724137931034,0.5806451612903226,0.5806451612903226,0.5483870967741935,0.5483870967741935,0.3793103448275862,0.3793103448275862
both,00061,150,60,0.5833333333333334,2.751975965006083,2.290390850015683,1.4220560121250896,0.5833333333333334,0.15,0.26666666666666666,60,0.3,2.824236078336253,2.51114739998593,1.3352388878615669,0.23333333333333334,0.3,0.4666666666666667,30,0.9333333333333333,2.7393522633317238,2.2528388499922585,1.7497275241836834,0.03333333333333333,0.03333333333333333,0.9333333333333333,0.06666666666666665,0.55,0.54,0.65,3.0411167050013317,0.3,3.0280699399940203,0.55,2.63707326001022,0.3,2.8431887600105257,0.55,2.577737930006697,0.3,2.6014495350042126,0.5862068965517241,0.5862068965517241,0.5161290322580645,0.5161290322580645,0.5806451612903226,0.5806451612903226,0.06896551724137931,0.06896551724137931
both,00062,150,60,0.8166666666666667,2.5467231083350876,1.9476902000023983,1.801746862826565,0.8166666666666667,0.13333333333333333,0.05,60,0.43333333333333335,3.2216404616687213,2.199183849967085,2.408386612535649,0.2833333333333333,0.43333333333333335,0.2833333333333333,30,0.7,2.3495913433337896,1.8208782999718096,1.392834811125556,0.03333333333333333,0.26666666666666666,0.7,0.15000000000000002,0.7833333333333333,0.64,0.95,2.6618822100077524,0.5,2.8488650299987057,0.8,2.133168624993414,0.5,2.8380559749988605,0.7,2.845118490004097,0.3,3.9780003800085977,0.75,0.75,0.42857142857142855,0.42857142857142855,0.8928571428571429,0.8928571428571429,0.4375,0.4375
both,00063,150,60,0.65,1.977866036669002,1.6158032499952242,0.9202546257242328,0.65,0.26666666666666666,0.08333333333333333,60,0.4666666666666667,2.3800972433353307,2.0386598499899264,1.3673435095259063,0.25,0.4666666666666667,0.2833333333333333,30,0.8,2.28336648332964,1.815431900031399,1.4459479994533815,0.06666666666666667,0.13333333333333333,0.8,0.21666666666666667,0.5833333333333334,0.6066666666666667,0.6,1.7884960349969332,0.5,2.067594620009186,0.75,2.2045688500016696,0.4,2.3290196649963035,0.6,1.9405332250084029,0.5,2.743677445000503,0.5384615384615384,0.5384615384615384,0.5,0.5,0.7352941176470589,0.7352941176470589,0.4230769230769231,0.4230769230769231
both,00064,150,60,0.5166666666666667,1.9258705316703224,1.6193610000191256,0.9472354906455279,0.5166666666666667,0.3333333333333333,0.15,60,0.43333333333333335,2.26434096666538,2.0382076000096276,1.1396311105296726,0.2833333333333333,0.43333333333333335,0.2833333333333333,30,0.8666666666666667,1.9492336233243501,1.7280422499752603,1.3055504868677565,0.0,0.13333333333333333,0.8666666666666667,0.15000000000000002,0.5166666666666667,0.5533333333333333,0.45,1.94592374501226,0.35,2.2034469899954274,0.75,2.125984694994986,0.4,2.4343986649997533,0.35,1.705703155003721,0.55,2.155177245000959,0.7307692307692307,0.7307692307692307,0.38235294117647056,0.38235294117647056,0.35294117647058826,0.35294117647058826,0.5,0.5
both,00065,150,60,0.65,1.9831562866767247,1.7710710000246763,1.150077134458047,0.65,0.31666666666666665,0.03333333333333333,60,0.6833333333333333,2.040100823327278,1.8753786999732254,0.845288103592644,0.2,0.6833333333333333,0.11666666666666667,30,0.7333333333333333,2.354135883320123,2.0463882999611083,1.4259703889337898,0.0,0.26666666666666666,0.7333333333333333,0.48333333333333334,0.65,0.68,0.75,1.9380143400048837,0.8,2.1808028449944685,0.75,2.012494145007804,0.65,2.1235899349849205,0.45,1.9989603750174865,0.6,1.8159096900024452,0.6521739130434783,0.6521739130434783,0.7837837837837838,0.7837837837837838,0.6486486486486487,0.6486486486486487,0.5217391304347826,0.5217391304347826
both,00066,150,60,0.8333333333333334,2.8506198550011805,2.579384199983906,1.6807545291836625,0.8333333333333334,0.16666666666666666,0.0,60,0.7333333333333333,2.8748680583327464,2.150623249995988,2.103228990296982,0.2,0.7333333333333333,0.06666666666666667,30,0.7666666666666667,2.7264735566626768,2.0071546499675605,1.6629484344078684,0.03333333333333333,0.2,0.7666666666666667,0.5333333333333332,0.8,0.78,0.9,2.8860577899962663,0.55,3.2219076499983204,0.75,2.8775537200068357,0.85,2.438614519996918,0.85,2.78824805500044,0.8,2.9640820050030015,0.7878787878787878,0.7878787878787878,0.8148148148148148,0.8148148148148148,0.8888888888888888,0.8888888888888888,0.6666666666666666,0.6666666666666666
both,00067,150,60,0.85,1.7061095633340302,1.129269099998055,1.3748906297914048,0.85,0.13333333333333333,0.016666666666666666,60,0.35,2.4678799216722838,1.6583158500143327,2.1044512965726825,0.6,0.35,0.05,30,0.7666666666666667,2.38256663333547,2.23129145000712,1.387581743579281,0.13333333333333333,0.1,0.7666666666666667,-0.25,0.7166666666666667,0.6333333333333333,0.8,1.626520220009843,0.35,2.4673446100001457,0.9,1.9305405999941285,0.45,1.9539623600081542,0.85,1.5612678699981188,0.25,2.9823327950085514,0.7692307692307693,0.7692307692307693,0.2647058823529412,0.2647058823529412,0.9117647058823529,0.9117647058823529,0.46153846153846156,0.46153846153846156
item_only,00001,150,60,0.6833333333333333,2.4019478083336554,1.5201684500007104,2.005012237018908,0.6833333333333333,0.2833333333333333,0.03333333333333333,60,0.5666666666666667,2.0849269733331313,1.488901500000793,1.3874528026663866,0.21666666666666667,0.5666666666666667,0.21666666666666667,30,0.6666666666666666,1.6505630133332791,1.3279828500017175,0.7550030518317136,0.06666666666666667,0.26666666666666666,0.6666666666666666,0.35,0.6166666666666667,0.6333333333333333,0.6,2.3423321800004486,0.5,2.166139789999579,0.7,1.8007368450000285,0.65,2.04964664500003,0.75,3.0627744000004897,0.55,2.0389944849997845,0.6206896551724138,0.6206896551724138,0.6774193548387096,0.6774193548387096,0.7419354838709677,0.7419354838709677,0.4482758620689655,0.4482758620689655
item_only,00002,150,60,0.5833333333333334,7.634231530000034,5.666949050000767,6.542715444772438,0.5833333333333334,0.21666666666666667,0.2,60,0.4166666666666667,7.816992151666819,6.434839999999895,6.518790173666633,0.23333333333333334,0.4166666666666667,0.35,30,0.8,6.56291523666708,4.35250730000007,7.834058731780204,0.03333333333333333,0.16666666666666666,0.8,0.18333333333333335,0.55,0.56,0.55,7.441841540000314,0.6,6.738309520000621,0.65,8.599609844999941,0.15,8.763538184999742,0.55,6.861243204999846,0.5,7.9491287500000904,0.6,0.6,0.5333333333333333,0.5333333333333333,0.5666666666666667,0.5666666666666667,0.3,0.3
item_only,00003,150,60,0.55,1.746605550000216,1.5518033000007563,0.8413218823822094,0.55,0.16666666666666666,0.2833333333333333,60,0.3,1.9786523066670876,1.665699350000068,0.9408163914047323,0.48333333333333334,0.3,0.21666666666666667,30,0.5666666666666667,2.0749930299997987,1.8200239500001771,1.1770411265926588,0.06666666666666667,0.36666666666666664,0.5666666666666667,-0.18333333333333335,0.4833333333333334,0.4533333333333333,0.65,1.6578934600005595,0.25,1.834702599999946,0.5,1.8116815300007147,0.35,2.1815410650004194,0.5,1.770241659999374,0.3,1.9197132550008973,0.6896551724137931,0.6896551724137931,0.22580645161290322,0.22580645161290322,0.41935483870967744,0.41935483870967744,0.3793103448275862,0.3793103448275862
item_only,00004,150,60,0.6666666666666666,1.659887953332994,1.5941631500027142,0.6295174960399563,0.6666666666666666,0.3,0.03333333333333333,60,0.55,1.85226123499912,1.4969191499985754,1.0133942042262971,0.3333333333333333,0.55,0.11666666666666667,30,0.8,1.503186580001784,1.4892477499961387,0.3720889634605541,0.0,0.2,0.8,0.21666666666666673,0.6666666666666666,0.6466666666666666,0.6,1.686787824997009,0.45,2.1836038399967945,0.65,1.4099818200025767,0.45,1.7945705100006308,0.75,1.8828942149993964,0.75,1.578609354999935,0.6666666666666666,0.6666666666666666,0.6296296296296297,0.6296296296296297,0.6666666666666666,0.6666666666666666,0.48484848484848486,0.48484848484848486
item_only,00005,150,60,0.7666666666666667,1.476446305000233,1.2678421500022523,0.6706254163766938,0.7666666666666667,0.2,0.03333333333333333,60,0.6,1.6965109449995603,1.4823700999986613,0.6124605790634888,0.21666666666666667,0.6,0.18333333333333332,30,0.6333333333333333,1.9065789999978733,1.8419865999967442,0.7606169773712621,0.0,0.36666666666666664,0.6333333333333333,0.3833333333333333,0.7666666666666667,0.6733333333333333,0.9,1.6102519800027948,0.5,1.6907275600009597,0.75,1.3156650199991418,0.65,1.8668993949992,0.65,1.503421914998762,0.65,1.5319058799985215,0.8235294117647058,0.8235294117647058,0.5769230769230769,0.5769230769230769,0.6923076923076923,0.6923076923076923,0.6176470588235294,0.6176470588235294
item_only,00006,150,60,0.7666666666666667,3.602790134999183,2.8264596500011976,2.6892608694598605,0.7666666666666667,0.2,0.03333333333333333,60,0.5166666666666667,3.88373322333379,3.2872184500010917,2.42315958358994,0.3333333333333333,0.5166666666666667,0.15,30,0.9333333333333333,4.0955738199986325,1.699246950003726,8.390293856094678,0.0,0.06666666666666667,0.9333333333333333,0.1833333333333334,0.7666666666666667,0.7,0.7,3.095566260000487,0.6,3.0413858100015205,0.9,4.279161224998825,0.45,3.9041373100015333,0.7,3.4336429199982375,0.5,4.705676549998316,0.8333333333333334,0.8333333333333334,0.4583333333333333,0.4583333333333333,0.6666666666666666,0.6666666666666666,0.5555555555555556,0.5555555555555556
item_only,00007,150,60,0.8333333333333334,2.365274776663864,1.4228913999977522,1.8543190336479034,0.8333333333333334,0.05,0.11666666666666667,60,0.21666666666666667,3.160986100000931,1.6659676499984926,3.4125186767502917,0.4666666666666667,0.21666666666666667,0.31666666666666665,30,0.8,3.3522993399975047,1.6878970499965362,3.930262146565373,0.06666666666666667,0.13333333333333333,0.8,-0.25,0.7666666666666667,0.58,0.8,2.471841664997919,0.25,4.026649594998162,0.95,1.5529113849930583,0.2,3.1181683750037337,0.75,3.071071280000615,0.2,2.338140330000897,0.8666666666666667,0.8666666666666667,0.3,0.3,0.8,0.8,0.13333333333333333,0.13333333333333333
item_only,00008,150,60,0.7666666666666667,3.364154253333345,2.682820750000019,2.1462626203038253,0.7666666666666667,0.2,0.03333333333333333,60,0.5333333333333333,4.5235411316666765,3.472823599999856,2.8656396664065653,0.3333333333333333,0.5333333333333333,0.13333333333333333,30,0.9,3.4646780433333486,2.091814950000071,3.3407404097291886,0.03333333333333333,0.06666666666666667,0.9,0.2,0.7333333333333334,0.7,0.7,3.7090934199999763,0.65,4.6705866250000785,0.7,3.3375924700000494,0.45,4.944274069999983,0.9,3.045776870000009,0.5,3.955762699999968,0.78125,0.78125,0.6785714285714286,0.6785714285714286,0.75,0.75,0.40625,0.40625
item_only,00009,150,60,0.6166666666666667,1.6900671416666682,1.3817903500003013,0.8921157092128847,0.6166666666666667,0.11666666666666667,0.26666666666666666,60,0.55,2.0231007166666433,1.6290781999996398,1.0113534633167307,0.2,0.55,0.25,30,0.6666666666666666,2.116173030000027,1.8114480999997795,1.146776201788064,0.0,0.3333333333333333,0.6666666666666666,0.35000000000000003,0.6166666666666667,0.6,0.55,1.559415209999861,0.4,1.7522468699999536,0.9,1.964915315000053,0.55,2.4639802899999723,0.4,1.5458709000000908,0.7,1.8530749900000045,0.6896551724137931,0.6896551724137931,0.7096774193548387,0.7096774193548387,0.5483870967741935,0.5483870967741935,0.3793103448275862,0.3793103448275862
item_only,00010,150,60,0.7166666666666667,1.3676512066666722,1.1975939499998276,0.5853798265700023,0.7166666666666667,0.18333333333333332,0.1,60,0.4166666666666667,1.448885255000035,1.3344128999999612,0.6797912753020204,0.4666666666666667,0.4166666666666667,0.11666666666666667,30,0.5666666666666667,1.8299636433333186,1.6880277499999465,0.5909896891528005,0.06666666666666667,0.36666666666666664,0.5666666666666667,-0.04999999999999999,0.65,0.5666666666666667,0.7,1.3395304249999982,0.4,1.6163419100000511,0.7,1.4151260650000494,0.35,1.2803130349999947,0.75,1.348297129999969,0.5,1.4500008200000594,0.7666666666666667,0.7666666666666667,0.43333333333333335,0.43333333333333335,0.6666666666666666,0.6666666666666666,0.4,0.4
item_only,00011,150,60,0.7666666666666667,1.807518015000187,1.4153779999996914,1.0299342359948227,0.7666666666666667,0.2,0.03333333333333333,60,0.7,1.9942407866666751,1.6129962499999237,1.1840297509198785,0.25,0.7,0.05,30,0.5666666666666667,2.355455566666751,1.7352328500001022,1.6847335814939435,0.03333333333333333,0.4,0.5666666666666667,0.44999999999999996,0.7333333333333334,0.7,0.8,1.8144878150001205,0.7,1.9964737700000115,0.65,1.7510565600002337,0.65,1.6081072500001938,0.85,1.8570096700002068,0.75,2.37814133999982,0.8,0.8,0.7142857142857143,0.7142857142857143,0.7428571428571429,0.7428571428571429,0.68,0.68
item_only,00012,150,60,0.36666666666666664,2.6143927433336405,2.1821906000004674,1.2364008212686644,0.36666666666666664,0.4166666666666667,0.21666666666666667,60,0.5333333333333333,2.612254843333297,2.3229501000005257,1.141187119567441,0.18333333333333332,0.5333333333333333,0.2833333333333333,30,0.8666666666666667,2.4620283233337736,2.1051482500006387,1.7820530585766627,0.0,0.13333333333333333,0.8666666666666667,0.35,0.36666666666666664,0.5333333333333333,0.35,2.2081657800003085,0.55,2.3346272300001147,0.4,2.9974711850005407,0.6,2.9126575950002005,0.35,2.6375412650000727,0.45,2.589479704999576,0.4482758620689655,0.4482758620689655,0.4838709677419355,0.4838709677419355,0.2903225806451613,0.2903225806451613,0.5862068965517241,0.5862068965517241
item_only,00013,150,60,0.65,1.787589108333312,1.4748016000000916,1.106207207227911,0.65,0.35,0.0,60,0.5666666666666667,2.4138077116666863,1.6688839500000086,2.268011825710829,0.31666666666666665,0.5666666666666667,0.11666666666666667,30,0.8333333333333334,1.8334677700000763,1.5873406499999874,0.9182559073413354,0.03333333333333333,0.13333333333333333,0.8333333333333334,0.25,0.6166666666666667,0.6533333333333333,0.7,1.6750513700000056,0.6,2.3321096150000358,0.7,1.9327834549999579,0.55,2.3119489550000254,0.55,1.7549324999999727,0.55,2.597364564999998,0.7058823529411765,0.7058823529411765,0.6923076923076923,0.6923076923076923,0.5769230769230769,0.5769230769230769,0.47058823529411764,0.47058823529411764
item_only,00014,150,60,0.48333333333333334,1.7302434266666902,1.3681334000002607,1.1413419835712058,0.48333333333333334,0.3,0.21666666666666667,60,0.3,1.450768608333283,1.3143280499998582,0.6297741215311113,0.2,0.3,0.5,30,0.9333333333333333,1.2605094233333147,1.1149170999997295,0.6580953545394589,0.0,0.06666666666666667,0.9333333333333333,0.09999999999999998,0.48333333333333334,0.5,0.55,1.6921317199998611,0.15,1.282873399999835,0.45,1.4230930250001166,0.4,1.6686478449999869,0.45,2.075505535000093,0.35,1.400784580000027,0.5757575757575758,0.5757575757575758,0.37037037037037035,0.37037037037037035,0.37037037037037035,0.37037037037037035,0.24242424242424243,0.24242424242424243
item_only,00015,150,60,0.7333333333333333,5.469223968333214,3.752836550000211,4.665129327322598,0.7333333333333333,0.26666666666666666,0.0,60,0.75,4.820347088333468,3.439555500000097,4.197630969929999,0.16666666666666666,0.75,0.08333333333333333,30,0.9,3.4530183266669456,2.6904129000004104,2.3532167348246373,0.0,0.1,0.9,0.5833333333333334,0.7333333333333333,0.7733333333333333,0.7,6.9177553500000615,0.85,3.588130310000179,0.6,5.966262704999826,0.75,6.514775485000063,0.9,3.523653849999755,0.65,4.358135470000161,0.7666666666666667,0.7666666666666667,0.8666666666666667,0.8666666666666667,0.7,0.7,0.6333333333333333,0.6333333333333333
item_only,00016,150,60,0.9,1.3932720716666458,1.1724377499999719,0.7314555950325348,0.9,0.1,0.0,60,0.4666666666666667,2.4030272616666175,1.538010249999843,2.517927563090924,0.4666666666666667,0.4666666666666667,0.06666666666666667,30,0.7666666666666667,2.18404878333334,2.1743086000001313,1.1982504077295968,0.06666666666666667,0.16666666666666666,0.7666666666666667,0.0,0.8333333333333334,0.7,0.85,1.436882249999917,0.5,2.5466874549999376,0.85,1.3990683399999397,0.4,2.759212614999933,1.0,1.3438656250000804,0.5,1.9031817149999823,0.9,0.9,0.4666666666666667,0.4666666666666667,0.9,0.9,0.4666666666666667,0.4666666666666667
item_only,00017,150,60,0.7,1.5476010316594815,1.4573755999444984,0.46241177411086476,0.7,0.26666666666666666,0.03333333333333333,60,0.65,1.74535648500508,1.6231157999718562,0.4830596166237729,0.26666666666666666,0.65,0.08333333333333333,30,0.7333333333333333,1.4891111499979162,1.495705699955579,0.42948400310831514,0.0,0.26666666666666666,0.7333333333333333,0.38333333333333336,0.7,0.6866666666666666,0.65,1.5796795899863354,0.5,1.9493475700030103,0.7,1.4336490050074644,0.7,1.5696938750043046,0.75,1.6294744999846444,0.75,1.7170280100079254,0.8518518518518519,0.8518518518518519,0.6666666666666666,0.6666666666666666,0.5757575757575758,0.5757575757575758,0.6296296296296297,0.6296296296296297
item_only,00018,150,60,0.8666666666666667,1.537266398333789,1.364275699997961,0.5931580587608103,0.8666666666666667,0.13333333333333333,0.0,60,0.4666666666666667,1.4584666266673594,1.3692607000048156,0.47903138105948984,0.36666666666666664,0.4666666666666667,0.16666666666666666,30,0.8333333333333334,1.465558529998331,1.3965608500002418,0.5370274065466188,0.03333333333333333,0.13333333333333333,0.8333333333333334,0.10000000000000003,0.8333333333333334,0.7,0.8,1.4191897850003443,0.5,1.3500453800021206,0.95,1.5131031850003638,0.5,1.473913015001017,0.85,1.6795062250006594,0.4,1.5514414849989406,0.9,0.9,0.6,0.6,0.8333333333333334,0.8333333333333334,0.3333333333333333,0.3333333333333333
item_only,00019,150,60,0.7166666666666667,1.7472255066677462,1.4065242500219028,0.8975370199610831,0.7166666666666667,0.2,0.08333333333333333,60,0.5,2.029192205002376,1.6729176999651827,1.1755368910176809,0.3,0.5,0.2,30,0.9,2.908941270003561,1.8648538000124972,3.397343030219108,0.0,0.1,0.9,0.2,0.7166666666666667,0.6666666666666666,0.75,1.574855895008659,0.6,1.7517092000023695,0.6,1.7544693150004604,0.5,1.896776310002315,0.8,1.9123513099941192,0.4,2.4390911050024444,0.8064516129032258,0.8064516129032258,0.5172413793103449,0.5172413793103449,0.6206896551724138,0.6206896551724138,0.4838709677419355,0.4838709677419355
item_only,00020,150,60,0.7,2.9158869266662806,1.8935372000050847,2.5111424446915587,0.7,0.23333333333333334,0.06666666666666667,60,0.6,3.3717356116663724,1.9664585500067915,3.0322592328132085,0.26666666666666666,0.6,0.13333333333333333,30,0.8333333333333334,2.8346135699985706,2.986842799997248,1.3292469106467155,0.0,0.16666666666666666,0.8333333333333334,0.3333333333333333,0.7,0.6866666666666666,0.65,2.7759076699992873,0.6,4.391481914999167,0.8,3.012903109999752,0.6,2.7473064250007155,0.65,2.958849999999802,0.6,2.9764184949992343,0.8461538461538461,0.8461538461538461,0.6470588235294118,0.6470588235294118,0.5882352941176471,0.5882352941176471,0.5384615384615384,0.5384615384615384
item_only,00021,150,60,0.7333333333333333,1.7347071033368897,1.364045000023907,1.4774973446956452,0.7333333333333333,0.18333333333333332,0.08333333333333333,60,0.4666666666666667,2.1793301550021473,1.8872663000074679,1.584419259022505,0.36666666666666664,0.4666666666666667,0.16666666666666666,30,0.5,1.797554863327726,1.5932829499943182,0.9016603211098188,0.36666666666666664,0.13333333333333333,0.5,0.10000000000000003,0.36666666666666664,0.58,0.75,1.5740565250103828,0.45,2.5078072750009595,0.65,1.9189837150013773,0.4,2.3041002400044817,0.8,1.7110810699989087,0.55,1.7260829500010004,0.7142857142857143,0.7142857142857143,0.5625,0.5625,0.75,0.75,0.35714285714285715,0.35714285714285715
item_only,00022,150,60,0.6666666666666666,4.280408693334175,2.753944849995605,4.74586250419548,0.6666666666666666,0.23333333333333334,0.1,60,0.26666666666666666,4.946627786667038,3.2604570499970578,4.9241964892790975,0.5166666666666667,0.26666666666666666,0.21666666666666667,30,0.6666666666666666,4.503892373332929,3.10764420000487,5.751478243113309,0.1,0.23333333333333334,0.6666666666666666,-0.25000000000000006,0.5666666666666667,0.5066666666666667,0.75,3.8826876899998752,0.25,4.452796490000765,0.6,3.2657368500025767,0.35,5.821270315000584,0.65,5.692801540000073,0.2,4.565816554999765,0.71875,0.71875,0.32142857142857145,0.32142857142857145,0.6071428571428571,0.6071428571428571,0.21875,0.21875
item_only,00023,150,60,0.65,2.275143971667664,1.6508283999864943,1.4642638401479688,0.65,0.26666666666666666,0.08333333333333333,60,0.5666666666666667,3.5988031883326284,2.805652099981671,3.1397261020258034,0.23333333333333334,0.5666666666666667,0.2,30,0.8666666666666667,2.384388109995052,1.7791544999927282,1.697490337188278,0.0,0.13333333333333333,0.8666666666666667,0.3333333333333333,0.65,0.66,0.6,2.483041365002282,0.7,4.483832249991247,0.75,2.0196617299981883,0.6,3.238197950005997,0.6,2.3227288200025216,0.4,3.074379365000641,0.5666666666666667,0.5666666666666667,0.7,0.7,0.7333333333333333,0.7333333333333333,0.43333333333333335,0.43333333333333335
item_only,00024,150,60,0.65,1.7719297216669172,1.5948027500053286,1.0292842507210842,0.65,0.13333333333333333,0.21666666666666667,60,0.2,1.8069276249986919,1.4864543000003323,1.1843653107129677,0.48333333333333334,0.2,0.31666666666666665,30,0.8333333333333334,1.5988370266650842,1.2751940500020282,1.0766852247187715,0.1,0.06666666666666667,0.8333333333333334,-0.2833333333333333,0.55,0.5066666666666667,0.6,1.7609994899998127,0.35,2.228732829997898,0.8,1.9257823149986506,0.15,1.6471625549987947,0.55,1.6290073600022879,0.1,1.5448874899993825,0.71875,0.71875,0.14285714285714285,0.14285714285714285,0.5714285714285714,0.5714285714285714,0.25,0.25
item_only,00025,150,60,0.7166666666666667,1.731848125000397,1.3441523500005133,0.998137621840045,0.7166666666666667,0.25,0.03333333333333333,60,0.4666666666666667,1.8704491100004816,1.5579378999973414,0.8726843215351037,0.4,0.4666666666666667,0.13333333333333333,30,0.7333333333333333,2.1423534233336494,1.8807596000042395,1.1726270240254077,0.03333333333333333,0.23333333333333334,0.7333333333333333,0.06666666666666665,0.6833333333333333,0.62,0.75,1.631460944999708,0.45,1.8392718850001983,0.65,1.5062188899988542,0.45,1.7858127550003702,0.75,2.0578645400026288,0.5,1.9862626900008764,0.8,0.8,0.42857142857142855,0.42857142857142855,0.6571428571428571,0.6571428571428571,0.52,0.52
item_only,00026,150,60,0.7333333333333333,2.051130935001614,1.6593280500092078,1.1225866836979648,0.7333333333333333,0.23333333333333334,0.03333333333333333,60,0.6833333333333333,1.9837907166598598,1.6007137999986298,1.069605767917566,0.13333333333333333,0.6833333333333333,0.18333333333333332,30,0.9,1.7877331499980451,1.4595616500009783,0.8556974441464062,0.0,0.1,0.9,0.55,0.7333333333333333,0.7466666666666667,0.85,1.9702061399962987,0.7,2.0121529699943492,0.65,1.9488687050063163,0.6,1.9540152499917895,0.7,2.234317960002227,0.75,1.9852039299934403,0.8518518518518519,0.8518518518518519,0.7878787878787878,0.7878787878787878,0.6363636363636364,0.6363636363636364,0.5555555555555556,0.5555555555555556
item_only,00027,150,60,0.6833333333333333,1.9291493283332481,1.6003308500003186,1.0957065010646223,0.6833333333333333,0.25,0.06666666666666667,60,0.5333333333333333,2.166017800000797,1.5286805000068855,1.4149951439210855,0.3333333333333333,0.5333333333333333,0.13333333333333333,30,0.6666666666666666,2.2316793033329305,1.6331638999981806,1.3793067493074136,0.0,0.3333333333333333,0.6666666666666666,0.2,0.6833333333333333,0.62,0.7,1.7505694649997168,0.45,2.451936189999833,0.8,2.114347859999543,0.5,2.259711524999875,0.55,1.9225306600004841,0.65,1.7864056850026828,0.5714285714285714,0.5714285714285714,0.59375,0.59375,0.78125,0.78125,0.4642857142857143,0.4642857142857143
item_only,00028,150,60,0.9,2.1623395066662243,1.9498964500016882,1.1487902794089897,0.9,0.1,0.0,60,0.36666666666666664,2.6042011316676508,2.14433700000518,1.3199040462208955,0.4666666666666667,0.36666666666666664,0.16666666666666666,30,0.9333333333333333,2.3819547499995677,1.859876250004163,1.3963155690898372,0.0,0.06666666666666667,0.9333333333333333,-0.10000000000000003,0.9,0.6933333333333334,0.85,2.375559429999703,0.3,2.23014557499846,0.9,2.152580799999123,0.45,3.210460145002435,0.95,1.9588782899998478,0.35,2.3719976750020577,0.8787878787878788,0.8787878787878788,0.4074074074074074,0.4074074074074074,0.9259259259259259,0.9259259259259259,0.3333333333333333,0.3333333333333333
item_only,00029,150,60,0.4,1.7192686616656525,1.3866466500330716,1.07118394434734,0.4,0.5333333333333333,0.06666666666666667,60,0.75,1.6401075033354573,1.3799214000464417,0.7035634025261452,0.13333333333333333,0.75,0.11666666666666667,30,0.5666666666666667,1.6577762999882302,1.551244799979031,0.574878210477135,0.03333333333333333,0.4,0.5666666666666667,0.6166666666666667,0.3666666666666667,0.5733333333333334,0.4,1.626580340001965,0.7,1.4681865700054915,0.35,1.730797774984967,0.85,1.6860268449992872,0.45,1.8004278700100258,0.7,1.7661090950015932,0.5,0.5,0.7666666666666667,0.7666666666666667,0.3,0.3,0.7333333333333333,0.7333333333333333
item_only,00030,150,60,0.7333333333333333,2.2949722850004037,1.4913807999982964,1.6942850093143487,0.7333333333333333,0.16666666666666666,0.1,60,0.5166666666666667,2.930147695000172,2.0073341999996046,2.2213902506336733,0.2833333333333333,0.5166666666666667,0.2,30,0.7666666666666667,2.784120436667096,2.6093582499997865,1.2820878914157585,0.06666666666666667,0.16666666666666666,0.7666666666666667,0.2333333333333334,0.6666666666666666,0.6533333333333333,0.85,2.043589750000683,0.55,2.3542763600005854,0.7,2.2957342900012008,0.65,3.289041355000518,0.65,2.5455928149993268,0.35,3.1471253699994124,0.7575757575757576,0.7575757575757576,0.5925925925925926,0.5925925925925926,0.7037037037037037,0.7037037037037037,0.45454545454545453,0.45454545454545453
item_only,00031,150,60,0.9166666666666666,2.1043365666671887,1.459305750002386,1.3860470053452574,0.9166666666666666,0.06666666666666667,0.016666666666666666,60,0.7,2.7488729500008047,1.8402820500050439,2.0340933485286756,0.26666666666666666,0.7,0.03333333333333333,30,0.7333333333333333,6.713621100001425,4.032410150000942,10.2310659515687,0.0,0.26666666666666666,0.7333333333333333,0.4333333333333333,0.9166666666666666,0.7933333333333333,0.9,2.6984119300046587,0.75,2.867991850002727,0.95,1.7760487399966223,0.75,2.7784265500013134,0.9,1.8385490300002858,0.6,2.600200449998374,0.9230769230769231,0.9230769230769231,0.7647058823529411,0.7647058823529411,0.9117647058823529,0.9117647058823529,0.6153846153846154,0.6153846153846154
item_only,00032,150,60,0.45,1.8801887549993503,1.5452409999998054,0.8376024792710617,0.45,0.31666666666666665,0.23333333333333334,60,0.5666666666666667,1.992025371665174,1.4909955499897478,1.2697805016584445,0.08333333333333333,0.5666666666666667,0.35,30,0.8333333333333334,1.6389618033349203,1.4276233999844408,0.636271662360351,0.0,0.16666666666666666,0.8333333333333334,0.48333333333333334,0.45,0.5733333333333334,0.6,1.9282580749990301,0.8,1.9061323700007051,0.4,1.7102058900010888,0.45,2.005961024995486,0.35,2.002102299997932,0.45,2.0639827199993306,0.4666666666666667,0.4666666666666667,0.6,0.6,0.43333333333333335,0.43333333333333335,0.5333333333333333,0.5333333333333333
item_only,00033,150,60,0.6,4.748419738324204,3.5739660499384627,3.857946988544534,0.6,0.15,0.25,60,0.3,4.734891546678652,3.3641223999438807,5.65848428726062,0.36666666666666664,0.3,0.3333333333333333,30,0.43333333333333335,6.63421508334189,3.707136850047391,9.122112948435513,0.2,0.36666666666666664,0.43333333333333335,-0.06666666666666665,0.39999999999999997,0.44666666666666666,0.75,5.724107299983734,0.15,4.677150105009787,0.5,4.287870869989274,0.4,3.776800990017364,0.55,4.233281044999603,0.35,5.750723545008805,0.7647058823529411,0.7647058823529411,0.38461538461538464,0.38461538461538464,0.38461538461538464,0.38461538461538464,0.23529411764705882,0.23529411764705882
item_only,00034,150,60,0.7666666666666667,1.7162176233357362,1.4080376499914564,0.9616080514572399,0.7666666666666667,0.18333333333333332,0.05,60,0.43333333333333335,1.8020060166648666,1.6578184500103816,0.648188566961555,0.43333333333333335,0.43333333333333335,0.13333333333333333,30,0.7666666666666667,1.9016252233316966,1.56655965000391,1.0406861884251426,0.0,0.23333333333333334,0.7666666666666667,0.0,0.7666666666666667,0.6333333333333333,0.85,1.7833344250073424,0.4,1.6487822249997408,0.75,1.5057583300047555,0.4,1.975624369995785,0.7,1.8595601149951109,0.5,1.7816114549990743,0.8461538461538461,0.8461538461538461,0.38235294117647056,0.38235294117647056,0.7058823529411765,0.7058823529411765,0.5,0.5
item_only,00035,150,60,0.5833333333333334,2.2937351400003534,1.564220749976812,1.9291051240547987,0.5833333333333334,0.35,0.06666666666666667,60,0.5333333333333333,2.2625233033371237,1.722889650001889,1.143806861321103,0.36666666666666664,0.5333333333333333,0.1,30,0.7,1.6884005933301522,1.3240074499917682,0.8649309449313144,0.03333333333333333,0.26666666666666666,0.7,0.16666666666666669,0.55,0.5866666666666667,0.5,2.4925634549988898,0.5,2.2253078850015298,0.55,1.4869323350052581,0.6,2.083489365002606,0.7,2.9017096299969127,0.5,2.478772660007235,0.6875,0.6875,0.6428571428571429,0.6428571428571429,0.4642857142857143,0.4642857142857143,0.4375,0.4375
item_only,00036,150,60,0.85,2.826586995002193,1.4787076500069816,3.2975765833892585,0.85,0.1,0.05,60,0.4,4.683068413336878,2.699199750000844,5.795783573260719,0.36666666666666664,0.4,0.23333333333333334,30,0.7666666666666667,3.8044676866634592,2.4411869999894407,3.3872671996139534,0.03333333333333333,0.2,0.7666666666666667,0.03333333333333338,0.8166666666666667,0.6533333333333333,0.8,2.19463505501335,0.45,4.041304934996878,0.85,3.1828817649919072,0.55,3.142792815002031,0.9,3.102244165001321,0.2,6.865107490011724,0.896551724137931,0.896551724137931,0.5806451612903226,0.5806451612903226,0.8064516129032258,0.8064516129032258,0.20689655172413793,0.20689655172413793
item_only,00037,150,60,0.85,1.862294469998354,1.2775347500137286,1.6270101351582302,0.85,0.08333333333333333,0.06666666666666667,60,0.7166666666666667,2.921475336665753,2.469414599996526,2.1160924618638663,0.18333333333333332,0.7166666666666667,0.1,30,0.8666666666666667,2.5258354666662246,1.6607619999995222,2.635120718249524,0.0,0.13333333333333333,0.8666666666666667,0.5333333333333333,0.85,0.8,0.9,1.4485661550002988,0.75,2.96153322999744,0.8,2.407627415000752,0.8,2.3260507150014744,0.85,1.730689839994011,0.6,3.4768420649983454,0.9230769230769231,0.9230769230769231,0.8529411764705882,0.8529411764705882,0.7941176470588235,0.7941176470588235,0.5384615384615384,0.5384615384615384
item_only,00038,150,60,0.6333333333333333,2.0759182099970834,1.5664794499753043,1.3315277941558579,0.6333333333333333,0.3333333333333333,0.03333333333333333,60,0.7666666666666667,2.2756028250015032,1.499038050067611,2.3126550911897326,0.15,0.7666666666666667,0.08333333333333333,30,0.6666666666666666,2.214709499994448,1.5429174500168301,1.9142281643039152,0.03333333333333333,0.3,0.6666666666666666,0.6166666666666667,0.6,0.6933333333333334,0.7,1.8953154099988752,0.75,2.6825940900016576,0.7,2.064236059988616,0.8,2.1485940150043463,0.5,2.268203160003759,0.75,1.9956203699985053,0.6428571428571429,0.6428571428571429,0.75,0.75,0.625,0.625,0.7857142857142857,0.7857142857142857
item_only,00039,150,60,0.7166666666666667,1.8209428500029996,1.497773650000454,1.0411415662641692,0.7166666666666667,0.21666666666666667,0.06666666666666667,60,0.8,2.3828503349999663,1.90011920001416,1.944356156833939,0.08333333333333333,0.8,0.11666666666666667,30,0.8333333333333334,2.729974960001224,2.1850886000029277,1.5350477155882243,0.0,0.16666666666666666,0.8333333333333334,0.7166666666666667,0.7166666666666667,0.7733333333333333,0.65,2.105537345004268,0.85,2.678304635004315,0.6,1.9628439599982812,0.8,2.590524964996439,0.9,1.3944472450064496,0.75,1.8797214049991453,0.8214285714285714,0.8214285714285714,0.84375,0.84375,0.625,0.625,0.75,0.75
item_only,00040,150,60,0.5833333333333334,1.5438806699967245,1.356385399994906,0.6096302200511271,0.5833333333333334,0.3333333333333333,0.08333333333333333,60,0.5166666666666667,1.8762450416727612,1.5660514000046533,0.9890876301129816,0.21666666666666667,0.5166666666666667,0.26666666666666666,30,0.7333333333333333,1.7564554599986877,1.5647931499988772,0.7543600482644636,0.03333333333333333,0.23333333333333334,0.7333333333333333,0.30000000000000004,0.55,0.5866666666666667,0.7,1.6081145700009074,0.6,1.8564533050055616,0.55,1.5073401749948971,0.55,1.9770664400071838,0.5,1.5161872649943688,0.4,1.7952153800055384,0.6451612903225806,0.6451612903225806,0.7241379310344828,0.7241379310344828,0.5172413793103449,0.5172413793103449,0.3225806451612903,0.3225806451612903
item_only,00041,150,60,0.7166666666666667,3.025516789992495,2.3931233499897644,2.1153480120142323,0.7166666666666667,0.25,0.03333333333333333,60,0.6333333333333333,2.451893131664838,1.9392573999939489,1.3977062794221407,0.3,0.6333333333333333,0.06666666666666667,30,0.7333333333333333,3.3929369600004673,2.6491054999933112,2.246023484184806,0.0,0.26666666666666666,0.7333333333333333,0.3333333333333333,0.7166666666666667,0.6866666666666666,0.65,3.5885515099886107,0.5,2.4011901399993802,0.8,3.1847084499982885,0.6,2.667342654996901,0.7,2.3032904099905864,0.8,2.287146599998232,0.84375,0.84375,0.5,0.5,0.5714285714285714,0.5714285714285714,0.75,0.75
item_only,00042,150,60,0.4166666666666667,2.629291163329617,2.12422764999792,1.737012885183653,0.4166666666666667,0.4166666666666667,0.16666666666666666,60,0.6,2.934700841664259,2.7673031000304036,1.4022873190143537,0.18333333333333332,0.6,0.21666666666666667,30,0.9666666666666667,2.2583729700010737,1.9002868000243325,1.3749971847834759,0.0,0.03333333333333333,0.9666666666666667,0.41666666666666663,0.4166666666666667,0.6,0.35,2.1405275299970525,0.5,2.3293897650029978,0.55,2.7707794549962275,0.8,3.359660819993587,0.35,2.9765665049955716,0.5,3.1150519399961922,0.4375,0.4375,0.4642857142857143,0.4642857142857143,0.39285714285714285,0.39285714285714285,0.71875,0.71875
item_only,00043,150,60,0.36666666666666664,1.8293877566645582,1.4220918000064555,1.3391520465915885,0.36666666666666664,0.21666666666666667,0.4166666666666667,60,0.38333333333333336,1.9371645983347359,1.5025085000088438,1.425443002402529,0.2,0.38333333333333336,0.4166666666666667,30,0.9666666666666667,2.1956635733348473,1.4607840000098804,1.9961205632812635,0.0,0.03333333333333333,0.9666666666666667,0.18333333333333335,0.36666666666666664,0.49333333333333335,0.25,2.254820920000202,0.25,1.5641498150012922,0.3,1.3635252599953673,0.45,2.3849721500024317,0.55,1.869817089998105,0.45,1.862371830000484,0.5172413793103449,0.5172413793103449,0.3548387096774194,0.3548387096774194,0.22580645161290322,0.22580645161290322,0.41379310344827586,0.41379310344827586
item_only,00044,150,60,0.5666666666666667,2.550920731665489,2.0017369000124745,1.6689439448599535,0.5666666666666667,0.31666666666666665,0.11666666666666667,60,0.3333333333333333,2.6837422016707326,1.7716668999928515,1.894378948204142,0.4166666666666667,0.3333333333333333,0.25,30,0.7666666666666667,2.4373586933244953,2.1541273500188254,1.0712749795955214,0.1,0.13333333333333333,0.7666666666666667,-0.08333333333333337,0.4666666666666667,0.5133333333333333,0.6,2.3336300900031346,0.3,2.978838265012018,0.5,2.706269639998209,0.3,2.718380975001492,0.6,2.6128624649951235,0.4,2.354007364998688,0.6666666666666666,0.6666666666666666,0.3,0.3,0.4666666666666667,0.4666666666666667,0.36666666666666664,0.36666666666666664
item_only,00045,150,60,0.8166666666666667,1.9495997050010676,1.5684555000043474,1.0131690646659215,0.8166666666666667,0.15,0.03333333333333333,60,0.75,2.22693454833255,1.8293068999773823,1.3031585421686043,0.1,0.75,0.15,30,0.8666666666666667,2.0321648333279883,1.5946986500057392,0.9790812137714449,0.03333333333333333,0.1,0.8666666666666667,0.65,0.7833333333333333,0.8,0.85,2.1501540699973702,0.85,2.3034943200007545,0.7,1.8879327250033384,0.8,2.197485374996904,0.9,1.8107123200024944,0.6,2.179823949999991,0.75,0.75,0.875,0.875,0.875,0.875,0.6071428571428571,0.6071428571428571
item_only,00046,150,60,0.9,1.7585221466656853,1.20102409995161,1.3788777553091192,0.9,0.03333333333333333,0.06666666666666667,60,0.26666666666666666,2.0753883433314817,1.6689360000018496,1.293110656090272,0.6,0.26666666666666666,0.13333333333333333,30,0.8333333333333334,3.1389945166709365,2.0775013500242494,2.6496047832860357,0.03333333333333333,0.13333333333333333,0.8333333333333334,-0.3333333333333333,0.8666666666666667,0.6333333333333333,0.9,1.5562258949998067,0.3,2.265064549999079,0.85,1.9529902999987825,0.25,2.0192550250008936,0.95,1.7663502449984663,0.25,1.9418454549944726,0.896551724137931,0.896551724137931,0.3548387096774194,0.3548387096774194,0.9032258064516129,0.9032258064516129,0.1724137931034483,0.1724137931034483
item_only,00047,150,60,0.6833333333333333,1.9540992516665332,1.3812184999987949,1.1789670748691106,0.6833333333333333,0.26666666666666666,0.05,60,0.65,1.8521392533254888,1.4920476500119548,0.8625366111585281,0.25,0.65,0.1,30,0.7,2.0623105266694135,1.9730741999810562,0.8100477276795394,0.03333333333333333,0.26666666666666666,0.7,0.4,0.65,0.6733333333333333,0.65,2.0387673300021563,0.6,1.8163455649890239,0.75,1.9521253300044918,0.65,2.0431843599973947,0.65,1.8714050949929515,0.7,1.6968878349900478,0.7857142857142857,0.7857142857142857,0.75,0.75,0.59375,0.59375,0.5357142857142857,0.5357142857142857
item_only,00048,150,60,0.8,2.6625434083333706,1.6806271499999639,1.9962974944271092,0.8,0.15,0.05,60,0.43333333333333335,3.2075335116666337,2.474489500000118,2.771752207635388,0.4666666666666667,0.43333333333333335,0.1,30,0.5333333333333333,3.032286149999997,2.7479497499998615,1.50664995668552,0.0,0.4666666666666667,0.5333333333333333,-0.033333333333333326,0.8,0.6,0.65,3.168989885000042,0.3,3.8311230199999726,0.85,2.5868527300000776,0.6,3.5400414649999674,0.9,2.231787609999992,0.4,2.251436049999961,0.8,0.8,0.5,0.5,0.8,0.8,0.36666666666666664,0.36666666666666664
item_only,00049,150,60,0.5,4.359399586661796,3.7581419000052847,2.493088311505689,0.5,0.31666666666666665,0.18333333333333332,60,0.43333333333333335,4.659094698334229,4.390495799976634,2.157703565876553,0.25,0.43333333333333335,0.31666666666666665,30,0.7666666666666667,3.987723603336296,3.585070650005946,3.0142152955474,0.06666666666666667,0.16666666666666666,0.7666666666666667,0.18333333333333335,0.43333333333333335,0.5266666666666666,0.6,3.9536772299936276,0.35,4.549562769994372,0.6,4.21350090499327,0.45,4.31644510999904,0.3,4.911020624998491,0.5,5.1112762150092745,0.42424242424242425,0.42424242424242425,0.48148148148148145,0.48148148148148145,0.5925925925925926,0.5925925925925926,0.3939393939393939,0.3939393939393939
item_only,00050,150,60,0.7833333333333333,3.1229673899999986,1.6838733500000558,4.238765079536504,0.7833333333333333,0.2,0.016666666666666666,60,0.6,3.2960602950000046,1.7232121499999948,4.506085309264599,0.3333333333333333,0.6,0.06666666666666667,30,0.8,2.1819338266666666,1.9770774999999503,1.0100393313395133,0.06666666666666667,0.13333333333333333,0.8,0.26666666666666666,0.7166666666666667,0.7133333333333334,0.65,3.5163360500000067,0.55,2.555268119999971,0.95,3.3719344849999744,0.6,3.672512370000038,0.75,2.4806316350000146,0.65,3.660400395000005,0.7333333333333333,0.7333333333333333,0.6666666666666666,0.6666666666666666,0.8333333333333334,0.8333333333333334,0.5333333333333333,0.5333333333333333
item_only,00051,150,60,0.7166666666666667,5.936568179995326,3.3186424500017893,9.374772997219262,0.7166666666666667,0.16666666666666666,0.11666666666666667,60,0.35,6.8891642583408,4.121259350009495,10.113324679440753,0.31666666666666665,0.35,0.3333333333333333,30,0.8666666666666667,3.3499105599922285,2.573433799960185,2.418551833887264,0.0,0.13333333333333333,0.8666666666666667,0.033333333333333326,0.7166666666666667,0.6,0.6,4.933953374990961,0.45,7.1010979300073815,0.75,7.471654015005333,0.3,7.569160060008289,0.8,5.404097149989684,0.3,5.9972347850067305,0.7857142857142857,0.7857142857142857,0.5,0.5,0.65625,0.65625,0.17857142857142858,0.17857142857142858
item_only,00052,150,60,0.48333333333333334,2.3557044016666775,1.7311318500001107,1.8967532518488144,0.48333333333333334,0.25,0.26666666666666666,60,0.4166666666666667,2.5722263366665783,1.7071874499997648,1.718887164736216,0.16666666666666666,0.4166666666666667,0.4166666666666667,30,0.7,1.9892771499999677,1.4727984000001015,1.3055257208042732,0.03333333333333333,0.26666666666666666,0.7,0.25,0.45,0.5,0.4,1.6952801800000543,0.35,2.486076599999933,0.55,3.222190354999975,0.35,2.868315484999903,0.5,2.149642670000003,0.55,2.3622869249998986,0.5925925925925926,0.5925925925925926,0.48484848484848486,0.48484848484848486,0.3939393939393939,0.3939393939393939,0.3333333333333333,0.3333333333333333
item_only,00053,150,60,0.45,3.973561350000091,2.973753599999327,3.3392105637523795,0.45,0.43333333333333335,0.11666666666666667,60,0.48333333333333334,3.7394570533332625,3.1411288499994043,2.5138172078533536,0.15,0.48333333333333334,0.36666666666666664,30,0.9333333333333333,2.893376846666797,2.2398904000001494,2.2547980134729118,0.0,0.06666666666666667,0.9333333333333333,0.33333333333333337,0.45,0.56,0.45,3.3932392500000788,0.55,4.142070534999857,0.5,4.149326730000212,0.65,2.8518011100000877,0.4,4.378118069999982,0.25,4.224499514999843,0.5483870967741935,0.5483870967741935,0.6206896551724138,0.6206896551724138,0.3448275862068966,0.3448275862068966,0.3548387096774194,0.3548387096774194
item_only,00054,150,60,0.36666666666666664,3.289929805001399,2.5089577000180725,2.001433667103978,0.36666666666666664,0.43333333333333335,0.2,60,0.35,3.6463670833288537,2.607015350018628,2.689379753153306,0.15,0.35,0.5,30,0.9666666666666667,2.2112053866653394,2.0047716999833938,0.9944572347391359,0.0,0.03333333333333333,0.9666666666666667,0.19999999999999998,0.36666666666666664,0.48,0.35,3.148314605007181,0.4,2.6488496399921133,0.35,3.0361135949991875,0.25,5.0315421149978645,0.4,3.6853612149978288,0.4,3.258709494996583,0.5185185185185185,0.5185185185185185,0.3939393939393939,0.3939393939393939,0.24242424242424243,0.24242424242424243,0.2962962962962963,0.2962962962962963
item_only,00055,150,60,0.6333333333333333,2.512261553336672,1.9628795500029812,1.6326256629932234,0.6333333333333333,0.3333333333333333,0.03333333333333333,60,0.5833333333333334,2.3596700116671854,1.8699015000311192,1.3485750576115156,0.18333333333333332,0.5833333333333334,0.23333333333333334,30,0.9333333333333333,1.7765746600033405,1.3132124499825295,1.0230637796566322,0.0,0.06666666666666667,0.9333333333333333,0.4,0.6333333333333333,0.6733333333333333,0.55,2.285165640001651,0.5,2.4731495149986586,0.7,2.547597924998263,0.65,2.113615964996279,0.65,2.704021095010103,0.6,2.492244555006619,0.7647058823529411,0.7647058823529411,0.7307692307692307,0.7307692307692307,0.46153846153846156,0.46153846153846156,0.47058823529411764,0.47058823529411764
item_only,00056,150,60,0.6166666666666667,2.5129233766672163,1.607288700004574,2.6010794021822528,0.6166666666666667,0.25,0.13333333333333333,60,0.48333333333333334,3.8338054799984094,2.9712391999928514,3.336916658541185,0.21666666666666667,0.48333333333333334,0.3,30,0.8,3.374548793331875,2.7078701500140596,2.4906694306103874,0.06666666666666667,0.13333333333333333,0.8,0.26666666666666666,0.55,0.6,0.6,1.878026230003161,0.4,4.041548625001451,0.5,2.4574145700011285,0.4,4.774050084994815,0.75,3.2033293299973593,0.65,2.685817729998962,0.7096774193548387,0.7096774193548387,0.5172413793103449,0.5172413793103449,0.5172413793103449,0.5172413793103449,0.45161290322580644,0.45161290322580644
task_only,00019,150,60,0.7666666666666667,1.3676909900000738,1.0233776999998554,0.820672665366054,0.7666666666666667,0.21666666666666667,0.016666666666666666,60,0.4166666666666667,1.8663928066666964,1.735542649999843,0.7763451209689614,0.48333333333333334,0.4166666666666667,0.1,30,0.5333333333333333,1.6968024366666214,1.672710399999687,0.7240597621316202,0.13333333333333333,0.3333333333333333,0.5333333333333333,-0.06666666666666665,0.6333333333333334,0.58,0.9,1.3883097900001302,0.45,1.7633428600000116,0.8,1.5318289100000584,0.4,2.038233349999973,0.6,1.1829342700000325,0.4,1.7976022100001046,0.7666666666666667,0.7666666666666667,0.4166666666666667,0.4166666666666667,,,,
task_only,00020,150,60,0.7666666666666667,1.8365931449999455,1.2840488000001642,1.2108762957926478,0.7666666666666667,0.16666666666666666,0.06666666666666667,60,0.4166666666666667,2.782467558333398,1.7618010999995022,3.648077911757554,0.43333333333333335,0.4166666666666667,0.15,30,0.7666666666666667,2.5813878100002814,1.5181735500009381,3.0997236073629666,0.03333333333333333,0.2,0.7666666666666667,-0.016666666666666663,0.7333333333333334,0.6266666666666667,0.75,1.9002115649998814,0.55,2.7518273049996425,0.85,2.0353543250001165,0.45,3.411136770000121,0.7,1.5742135449998387,0.25,2.1844386000004308,0.7666666666666667,0.7666666666666667,0.4166666666666667,0.4166666666666667,,,,
task_only,00021,150,60,0.55,1.776410971666337,1.4699904499975673,0.9011485459700981,0.55,0.36666666666666664,0.08333333333333333,60,0.6333333333333333,1.8788913483332483,1.3811812000021746,1.4263082882579265,0.23333333333333334,0.6333333333333333,0.13333333333333333,30,0.8,1.712714483333548,1.392775000003894,0.8429921068614585,0.0,0.2,0.8,0.39999999999999997,0.55,0.6333333333333333,0.6,1.7648020000000542,0.65,1.9186734549988613,0.5,1.7915140149994842,0.7,2.0609670850008115,0.55,1.7729168999994727,0.55,1.6570335050000722,0.55,0.55,0.6333333333333333,0.6333333333333333,,,,
task_only,00022,150,60,0.8333333333333334,1.6364287200000642,1.186875700004748,1.059090334466831,0.8333333333333334,0.16666666666666666,0.0,60,0.7,1.853987183332356,1.390940050005156,1.1448260828702281,0.2833333333333333,0.7,0.016666666666666666,30,0.8333333333333334,2.467831049998737,1.9454150999954436,1.6240358560327055,0.0,0.16666666666666666,0.8333333333333334,0.41666666666666663,0.8333333333333334,0.78,0.9,1.3462188800003787,0.8,1.740490129999671,0.75,1.8297109749990341,0.7,2.0072350349983026,0.85,1.7333563050007796,0.6,1.8142363849990943,0.8333333333333334,0.8333333333333334,0.7,0.7,,,,
task_only,00023,150,60,0.7166666666666667,1.7121963033348342,1.3346273500064854,1.1049643556666418,0.7166666666666667,0.2833333333333333,0.0,60,0.5833333333333334,2.413496323333675,1.785246499995992,1.769848232160731,0.36666666666666664,0.5833333333333334,0.05,30,0.5666666666666667,2.1837575999990806,2.113760150001326,0.8132826246004797,0.03333333333333333,0.4,0.5666666666666667,0.21666666666666673,0.6833333333333333,0.6333333333333333,0.8,1.4174378050032828,0.65,2.2228660649998346,0.65,1.726957525000762,0.65,2.1894777050008996,0.7,1.9921935800004575,0.45,2.8281452000002902,0.7166666666666667,0.7166666666666667,0.5833333333333334,0.5833333333333334,,,,
task_only,00024,150,60,0.7166666666666667,2.6049090149996723,1.653350100001262,2.3212039412570253,0.7166666666666667,0.26666666666666666,0.016666666666666666,60,0.8666666666666667,2.5283860333341486,2.0654005500036874,1.6344968919709904,0.08333333333333333,0.8666666666666667,0.05,30,0.8666666666666667,3.156969443332249,2.6453745999970124,1.6583733948843784,0.0,0.13333333333333333,0.8666666666666667,0.7833333333333333,0.7166666666666667,0.8066666666666666,0.7,2.526332494999224,0.85,2.7718528299992613,0.7,2.456940215000941,0.8,2.578157780002948,0.75,2.8314543349988526,0.95,2.235147490000236,0.7166666666666667,0.7166666666666667,0.8666666666666667,0.8666666666666667,,,,
task_only,00025,150,60,0.6166666666666667,1.856327208333308,1.4511540499997864,1.2643174587027446,0.6166666666666667,0.38333333333333336,0.0,60,0.6,1.8598787533333203,1.5856432000000495,0.9153425457609642,0.2833333333333333,0.6,0.11666666666666667,30,0.7666666666666667,2.082220150000012,1.746705749999819,0.9122457657381755,0.0,0.23333333333333334,0.7666666666666667,0.31666666666666665,0.6166666666666667,0.64,0.7,1.780962859999954,0.55,2.056549840000025,0.7,1.9760698850000153,0.5,1.81670161499992,0.45,1.8119488799999544,0.75,1.706384805000016,0.6166666666666667,0.6166666666666667,0.6,0.6,,,,
task_only,00026,150,60,0.8,2.4600183816666914,1.6725334999996448,2.1317785988979594,0.8,0.18333333333333332,0.016666666666666666,60,0.5833333333333334,2.99267242166668,2.3411321500000213,1.8157897446970022,0.35,0.5833333333333334,0.06666666666666667,30,0.7,4.996638406666656,3.977970450000157,2.744909206133034,0.0,0.3,0.7,0.2333333333333334,0.8,0.6933333333333334,0.7,2.6747832600000265,0.6,3.4920347150000453,0.95,2.027414769999973,0.65,3.030178809999984,0.75,2.6778571150000743,0.5,2.45580374000001,0.8,0.8,0.5833333333333334,0.5833333333333334,,,,
task_only,00027,150,60,0.6666666666666666,1.6424748766667714,1.3642097500005548,0.8774645995276086,0.6666666666666666,0.26666666666666666,0.06666666666666667,60,0.7,2.449194496666784,1.647720450000179,2.7385116877183755,0.25,0.7,0.05,30,0.9333333333333333,2.3452052333333997,1.5578989499999807,1.9424690607576045,0.0,0.06666666666666667,0.9333333333333333,0.44999999999999996,0.6666666666666666,0.7333333333333333,0.9,1.796949500000028,0.8,2.5633545700001377,0.6,1.597437255000068,0.5,2.4626380550000704,0.5,1.5330378750002183,0.8,2.321590865000144,0.6666666666666666,0.6666666666666666,0.7,0.7,,,,
task_only,00028,150,60,0.8166666666666667,1.3767090950000693,1.1640089500001523,0.624399527506447,0.8166666666666667,0.15,0.03333333333333333,60,0.75,1.6497688433333526,1.3875314500005516,1.0429714601423061,0.13333333333333333,0.75,0.11666666666666667,30,0.9,1.3471926566666297,1.1305823499997132,0.5295305384414523,0.03333333333333333,0.06666666666666667,0.9,0.6166666666666667,0.7833333333333333,0.8066666666666666,0.9,1.40109900500006,0.8,1.53846853,0.8,1.4651536300000316,0.75,1.7752240350000648,0.75,1.2638746500001161,0.7,1.6356139649999932,0.8166666666666667,0.8166666666666667,0.75,0.75,,,,
task_only,00029,150,60,0.6666666666666666,2.2339369166665466,1.5722253000021738,1.6290940376191458,0.6666666666666666,0.23333333333333334,0.1,60,0.6333333333333333,2.5504131416670135,1.9475552499970945,1.6648418609942597,0.06666666666666667,0.6333333333333333,0.3,30,0.9666666666666667,2.969751186667175,1.9481699000025399,3.1909963896347278,0.03333333333333333,0.0,0.9666666666666667,0.5666666666666667,0.6333333333333333,0.7133333333333334,0.75,2.4616675800007215,0.7,2.763169340000604,0.6,2.0409175249991676,0.4,2.308747220000805,0.65,2.199225644999751,0.8,2.579322864999631,0.6666666666666666,0.6666666666666666,0.6333333333333333,0.6333333333333333,,,,
task_only,00030,150,60,0.2833333333333333,4.03113095666669,3.37498689999984,2.3537625381493967,0.2833333333333333,0.55,0.16666666666666666,60,0.5166666666666667,3.6723244683333025,2.972526149999794,2.2382668076827033,0.1,0.5166666666666667,0.38333333333333336,30,0.7666666666666667,4.148570119999931,3.453811399999722,2.8101532949046337,0.06666666666666667,0.16666666666666666,0.7666666666666667,0.41666666666666674,0.21666666666666667,0.47333333333333333,0.3,4.2813338150001075,0.5,3.4709467600000155,0.3,3.828766214999905,0.55,4.929449854999893,0.25,3.9832928400000585,0.5,2.616576789999999,0.2833333333333333,0.2833333333333333,0.5166666666666667,0.5166666666666667,,,,
task_only,00032,150,60,0.4666666666666667,2.2259662100002364,1.38396439999633,2.0722723385539403,0.4666666666666667,0.11666666666666667,0.4166666666666667,60,0.3333333333333333,2.189637704999768,1.7220721500052605,1.257714291835182,0.2,0.3333333333333333,0.4666666666666667,30,0.8666666666666667,1.8786730533320224,1.654108049988281,0.8528076969207128,0.03333333333333333,0.1,0.8666666666666667,0.1333333333333333,0.43333333333333335,0.49333333333333335,0.4,3.0516681149965734,0.35,2.1495618300017667,0.65,1.92361070500192,0.3,2.2359095399981017,0.35,1.7026198100022156,0.35,2.183441744999436,0.4666666666666667,0.4666666666666667,0.3333333333333333,0.3333333333333333,,,,
task_only,00033,150,60,0.75,1.5454580349999938,1.2110424999999623,0.7546215048853864,0.75,0.15,0.1,60,0.55,1.61962484500001,1.4086130000000594,0.6374131442740119,0.3,0.55,0.15,30,0.8666666666666667,1.2868442799999988,1.0263387999999622,0.8093972432000802,0.0,0.13333333333333333,0.8666666666666667,0.25000000000000006,0.75,0.6933333333333334,0.7,1.675326609999979,0.55,1.5115464749999887,0.75,1.395299399999999,0.65,1.6053598200000123,0.8,1.5657480950000036,0.45,1.7419682400000283,0.75,0.75,0.55,0.55,,,,
task_only,00034,150,60,0.3333333333333333,2.121812521666288,1.2734314999979688,4.150116114639895,0.3333333333333333,0.4,0.26666666666666666,60,0.48333333333333334,2.1659465916663367,1.7615419499998097,1.5728773008735153,0.11666666666666667,0.48333333333333334,0.4,30,0.8666666666666667,1.7258000399994975,1.459483350001392,1.0192391872509659,0.03333333333333333,0.1,0.8666666666666667,0.3666666666666667,0.3,0.5,0.35,1.3721314199989139,0.45,1.9565741749996959,0.4,1.5324068000001716,0.55,2.634032819999993,0.25,3.46089934499978,0.45,1.9072327799993218,0.3333333333333333,0.3333333333333333,0.48333333333333334,0.48333333333333334,,,,
task_only,00035,150,60,0.6166666666666667,2.5473176683318646,1.7338952999998583,2.4483180262547957,0.6166666666666667,0.26666666666666666,0.11666666666666667,60,0.5666666666666667,2.8839200183312643,1.7186229999933857,3.8755108161415888,0.2833333333333333,0.5666666666666667,0.15,30,0.8,1.7799836533347844,1.561780700008967,0.8125945579200282,0.0,0.2,0.8,0.2833333333333333,0.6166666666666667,0.6333333333333333,0.6,2.043787109994446,0.65,2.719424880000588,0.6,2.9262245250021808,0.55,2.3942681949978577,0.65,2.6719413699989674,0.5,3.538066979995347,0.6166666666666667,0.6166666666666667,0.5666666666666667,0.5666666666666667,,,,
task_only,00036,150,60,0.5,1.5473363233346997,1.2561693000025116,0.8433807171160393,0.5,0.5,0.0,60,0.6833333333333333,1.7011579966686743,1.3341826999967452,0.8727716389865051,0.16666666666666666,0.6833333333333333,0.15,30,0.6666666666666666,1.5461666766631728,1.2603200500016103,0.8298226068778127,0.0,0.3333333333333333,0.6666666666666666,0.5166666666666667,0.5,0.6066666666666667,0.65,1.522395975003019,0.65,1.6617692450032338,0.55,1.509297130003688,0.55,1.68287534500123,0.3,1.610315864997392,0.85,1.7588294000015594,0.5,0.5,0.6833333333333333,0.6833333333333333,,,,
task_only,00037,150,60,0.7,1.6996376116658212,1.4027999999962049,0.9458158095717345,0.7,0.2,0.1,60,0.4,2.162121051667782,1.5733162999968044,1.6928310895785756,0.3333333333333333,0.4,0.26666666666666666,30,0.8333333333333334,1.6217520166663841,1.1784941499936394,0.9799096359966648,0.03333333333333333,0.13333333333333333,0.8333333333333334,0.06666666666666671,0.6666666666666666,0.6066666666666667,0.65,1.6714478100009729,0.35,1.929571455005498,0.7,1.677523019995715,0.5,2.239167615000042,0.75,1.7499420050007757,0.35,2.3176240849978056,0.7,0.7,0.4,0.4,,,,
task_only,00038,150,60,0.8666666666666667,3.8384761333337036,2.9393464000058884,2.8165018977853506,0.8666666666666667,0.11666666666666667,0.016666666666666666,60,0.5,4.474142409999938,3.7348075000008976,2.817026915604757,0.31666666666666665,0.5,0.18333333333333332,30,0.9333333333333333,3.6731954733336654,3.1549094000001787,1.9144040111172542,0.06666666666666667,0.0,0.9333333333333333,0.18333333333333335,0.8,0.7333333333333333,0.85,4.071597815000859,0.5,3.7277160949990504,0.85,3.4860237950000736,0.5,4.193186489999789,0.9,3.957806790000177,0.5,5.5015246450009725,0.8666666666666667,0.8666666666666667,0.5,0.5,,,,
task_only,00039,150,60,0.7666666666666667,1.4799667933402816,1.1985204000084195,0.8484055895986002,0.7666666666666667,0.21666666666666667,0.016666666666666666,60,0.75,2.08691069833197,1.4890231000026688,1.3459785915723355,0.23333333333333334,0.75,0.016666666666666666,30,0.7666666666666667,2.2393947200034745,1.599376000027405,1.5592044925075732,0.0,0.23333333333333334,0.7666666666666667,0.5166666666666666,0.7666666666666667,0.76,0.8,1.3731998550065327,0.8,1.80739879499597,0.75,1.7168700050096959,0.75,1.8745572650019313,0.75,1.3498305200046161,0.7,2.578776034998009,0.7666666666666667,0.7666666666666667,0.75,0.75,,,,
task_only,00040,150,60,0.7833333333333333,1.6755946916644462,1.4135741499922005,0.8949769100558408,0.7833333333333333,0.11666666666666667,0.1,60,0.45,2.4137624600019385,1.9397105000098236,1.4685236291347525,0.3333333333333333,0.45,0.21666666666666667,30,0.8333333333333334,2.406164140002026,1.9540543000039177,1.3687483605604187,0.03333333333333333,0.13333333333333333,0.8333333333333334,0.1166666666666667,0.75,0.66,0.8,1.6136268849979387,0.4,2.29524685999786,0.85,1.537574969996058,0.35,2.2497668450072523,0.7,1.8755822199993417,0.6,2.6962736750007026,0.7833333333333333,0.7833333333333333,0.45,0.45,,,,
task_only,00041,150,60,0.35,1.624659123334762,1.2687897499999963,0.9402361587386137,0.35,0.38333333333333336,0.26666666666666666,60,0.5,1.4641354550015724,1.319952000019839,0.7554425223697727,0.15,0.5,0.35,30,0.8333333333333334,1.3459618999972007,1.146223399991868,0.7624637861181688,0.13333333333333333,0.03333333333333333,0.8333333333333334,0.35,0.21666666666666665,0.5066666666666667,0.3,1.7692458699981217,0.55,1.5484760449937311,0.35,1.7138307200017153,0.6,1.3347059600026114,0.4,1.3909007800044493,0.35,1.5092243600083748,0.35,0.35,0.5,0.5,,,,
task_only,00042,150,60,0.48333333333333334,2.225731279998824,1.5999158000049647,2.649240236568431,0.48333333333333334,0.36666666666666664,0.15,60,0.43333333333333335,2.1626160100034517,1.6110540000081528,1.81129923277295,0.23333333333333334,0.43333333333333335,0.3333333333333333,30,0.9333333333333333,1.7356766033257978,1.4350283999810927,0.982877275885282,0.0,0.06666666666666667,0.9333333333333333,0.2,0.48333333333333334,0.5533333333333333,0.65,2.0036104150058236,0.35,2.0557970599998954,0.45,2.0146531999896977,0.5,2.412471590016503,0.35,2.6589302250009497,0.45,2.0195793799939565,0.48333333333333334,0.48333333333333334,0.43333333333333335,0.43333333333333335,,,,
task_only,00043,150,60,0.65,2.3040107149989733,1.6710936999879777,1.5287307907583936,0.65,0.35,0.0,60,0.7,2.9291111183343066,2.201840900001116,2.0772009024327813,0.2833333333333333,0.7,0.016666666666666666,30,0.43333333333333335,4.306215606661863,3.1722229499864625,3.185373143264495,0.0,0.5666666666666667,0.43333333333333335,0.41666666666666663,0.65,0.6266666666666667,0.65,2.194583584998327,0.65,2.674311419995502,0.55,1.9609883950004587,0.75,2.7260493650028366,0.75,2.756460164998134,0.7,3.386972570004582,0.65,0.65,0.7,0.7,,,,
task_only,00044,150,60,0.7,1.7330114249996162,1.4164948999969056,0.9558498632055853,0.7,0.21666666666666667,0.08333333333333333,60,0.4166666666666667,2.398380891667572,1.6898014500038698,1.6417571590410427,0.36666666666666664,0.4166666666666667,0.21666666666666667,30,0.8333333333333334,2.8923966566663393,2.0919811999992817,2.419959345179651,0.03333333333333333,0.13333333333333333,0.8333333333333334,0.050000000000000044,0.6666666666666666,0.6133333333333333,0.7,1.627151500000764,0.45,2.4724468800020984,0.7,1.7871988349987078,0.35,1.9771370100010244,0.7,1.7846839399993768,0.45,2.7455587849995937,0.7,0.7,0.4166666666666667,0.4166666666666667,,,,
task_only,00045,150,60,0.55,2.6226361666679927,1.478786649997346,6.37308464728518,0.55,0.13333333333333333,0.31666666666666665,60,0.31666666666666665,2.002766453332151,1.629259200009983,1.013682929918103,0.35,0.31666666666666665,0.3333333333333333,30,0.6333333333333333,1.8413394399957421,1.4219336499809287,1.0252632706757991,0.0,0.36666666666666664,0.6333333333333333,-0.033333333333333326,0.55,0.47333333333333333,0.5,3.897639294998953,0.45,1.7373788600001716,0.5,1.82644240000227,0.25,1.9105461249971996,0.65,2.1438268050027545,0.25,2.3603743749990826,0.55,0.55,0.31666666666666665,0.31666666666666665,,,,
task_only,00046,150,60,0.5666666666666667,3.0675110766644744,2.1380626000172924,3.188997391093081,0.5666666666666667,0.35,0.08333333333333333,60,0.7,3.080768196666031,1.943236799997976,2.169724930479801,0.23333333333333334,0.7,0.06666666666666667,30,0.7666666666666667,3.4961355033350023,2.8608579499996267,2.8669773325157597,0.0,0.23333333333333334,0.7666666666666667,0.4666666666666666,0.5666666666666667,0.66,0.65,3.28199657999794,0.85,2.5831140699971002,0.5,2.832064104996971,0.55,3.491229115007445,0.55,3.0884725449985124,0.7,3.167961404993548,0.5666666666666667,0.5666666666666667,0.7,0.7,,,,
task_only,00047,150,60,0.8,1.5240477250035231,1.3317676999722607,0.7195221959546656,0.8,0.16666666666666666,0.03333333333333333,60,0.5,1.8693192816659576,1.5874467999965418,0.8761343484044548,0.45,0.5,0.05,30,0.8,1.8859712399969188,1.6325625499885064,0.6723636557213082,0.03333333333333333,0.16666666666666666,0.8,0.04999999999999999,0.7666666666666667,0.68,0.8,1.3605830399959813,0.4,1.6837310850009088,0.9,1.5110584650043166,0.45,1.6324840099958238,0.7,1.7005016700102715,0.65,2.29174275000114,0.8,0.8,0.5,0.5,,,,
task_only,00048,150,60,0.5333333333333333,2.70813709833407,1.8598661499854643,1.6038471553245768,0.5333333333333333,0.36666666666666664,0.1,60,0.6833333333333333,3.5457142566612068,3.0173669999931008,2.2505535340569445,0.25,0.6833333333333333,0.06666666666666667,30,0.8,2.7193420233301975,2.5078589499753434,1.7148326766187454,0.0,0.2,0.8,0.43333333333333335,0.5333333333333333,0.6466666666666666,0.7,2.7570427199971164,0.5,3.68319499999634,0.65,2.91999892500462,0.9,3.174170784992748,0.25,2.4473696500004736,0.65,3.7797769849945326,0.5333333333333333,0.5333333333333333,0.6833333333333333,0.6833333333333333,,,,
task_only,00049,150,60,0.6,2.6991970099999945,2.0284721999999533,1.5597835515842537,0.6,0.3,0.1,60,0.5833333333333334,3.073671660000019,2.4683529499999963,1.840710089712718,0.18333333333333332,0.5833333333333334,0.23333333333333334,30,0.8666666666666667,2.631615089999995,2.1034682499999917,1.549370680285172,0.0,0.13333333333333333,0.8666666666666667,0.4,0.6,0.6466666666666666,0.55,2.291705649999983,0.55,2.4202637500000153,0.55,2.872866490000001,0.6,3.801575150000025,0.7,2.9330188899999996,0.6,2.999176080000018,0.6,0.6,0.5833333333333334,0.5833333333333334,,,,
task_only,00050,150,60,0.5666666666666667,2.107300593333351,1.7200528499997745,1.3869738611662066,0.5666666666666667,0.3333333333333333,0.1,60,0.5333333333333333,2.2779508716666745,1.7367159499999616,1.5337781934854315,0.23333333333333334,0.5333333333333333,0.23333333333333334,30,0.8,1.8069930133333096,1.6247177999998712,0.8646171601422962,0.0,0.2,0.8,0.3,0.5666666666666667,0.6,0.7,2.1193662049999604,0.6,2.211779590000083,0.7,2.2532283200000394,0.55,2.361285319999979,0.3,1.9493072550000534,0.45,2.2607877049999616,0.5666666666666667,0.5666666666666667,0.5333333333333333,0.5333333333333333,,,,
task_only,00051,150,60,0.6333333333333333,3.1968442783333404,2.3395964999999705,2.297591398887377,0.6333333333333333,0.3333333333333333,0.03333333333333333,60,0.7333333333333333,3.3224410950000673,2.5637217500002407,2.406628887056615,0.16666666666666666,0.7333333333333333,0.1,30,0.9666666666666667,1.6833599299999757,1.5078017499999987,0.7079101358986915,0.0,0.03333333333333333,0.9666666666666667,0.5666666666666667,0.6333333333333333,0.74,0.55,2.867483564999975,0.7,3.3994283450000693,0.65,4.088798970000016,0.7,3.292653025000027,0.7,2.634250300000031,0.8,3.275241915000106,0.6333333333333333,0.6333333333333333,0.7333333333333333,0.7333333333333333,,,,
task_only,00052,150,60,0.7166666666666667,2.005742793333472,1.4454160499999489,1.6586393162539073,0.7166666666666667,0.2833333333333333,0.0,60,0.6833333333333333,2.5743318550001275,1.4679784500003734,4.569646915830258,0.25,0.6833333333333333,0.06666666666666667,30,0.5333333333333333,2.1869675533334885,1.4943755499998588,2.0549748733167426,0.06666666666666667,0.4,0.5333333333333333,0.43333333333333335,0.65,0.6666666666666666,0.65,2.7507048149999718,0.75,3.4746765050002977,0.7,1.7205248800001756,0.65,2.690406619999794,0.8,1.5459986850002678,0.65,1.557912440000291,0.7166666666666667,0.7166666666666667,0.6833333333333333,0.6833333333333333,,,,
task_only,00053,150,60,0.6333333333333333,2.4234917783314205,1.9086260499898344,1.559089327511528,0.6333333333333333,0.35,0.016666666666666666,60,0.7166666666666667,2.7124920449995744,2.081685500015737,1.554922800130154,0.21666666666666667,0.7166666666666667,0.06666666666666667,30,0.8333333333333334,2.1931180700000064,1.93192539998563,0.7479051305213801,0.0,0.16666666666666666,0.8333333333333334,0.5,0.6333333333333333,0.7066666666666667,0.65,1.917884754994884,0.7,2.442591520000133,0.65,2.9973714149993613,0.65,3.036443039998994,0.6,2.3552191650000167,0.8,2.658441574999597,0.6333333333333333,0.6333333333333333,0.7166666666666667,0.7166666666666667,,,,
task_only,00054,150,60,0.45,1.7961682433310975,1.5885026999749243,1.1092470144707613,0.45,0.38333333333333336,0.16666666666666666,60,0.36666666666666664,1.6595259099985318,1.366761299985228,1.1658830363856822,0.18333333333333332,0.36666666666666664,0.45,30,0.8,1.796010566665791,1.0677455499826467,3.27780665870605,0.03333333333333333,0.16666666666666666,0.8,0.18333333333333332,0.4166666666666667,0.4866666666666667,0.5,1.8217943599971478,0.25,1.528482989995973,0.35,1.8871622849954293,0.35,1.3752186950005125,0.5,1.6795480850007152,0.5,2.0748760449991095,0.45,0.45,0.36666666666666664,0.36666666666666664,,,,
task_only,00055,150,60,0.7,1.7777397966662345,1.333031200018013,1.4248486214461211,0.7,0.18333333333333332,0.11666666666666667,60,0.21666666666666667,1.9816388749973461,1.4370221499993932,1.5088126825728634,0.5333333333333333,0.21666666666666667,0.25,30,0.5333333333333333,1.9966888100025244,1.4421491000102833,1.5077337179928976,0.26666666666666666,0.2,0.5333333333333333,-0.31666666666666665,0.4333333333333333,0.47333333333333333,0.75,1.330917799990857,0.05,1.9622733199998037,0.8,2.11978992500226,0.35,2.502290259997244,0.55,1.8825116650055862,0.25,1.4803530449949904,0.7,0.7,0.21666666666666667,0.21666666666666667,,,,
task_only,00056,150,60,0.5333333333333333,2.145642175002528,1.4742764999973588,1.9971662119626228,0.5333333333333333,0.4166666666666667,0.05,60,0.7833333333333333,2.060446960005599,1.5190876000269782,1.1560844245580222,0.1,0.7833333333333333,0.11666666666666667,30,0.8333333333333334,2.088918853341602,1.824692700029118,1.2616590723423313,0.0,0.16666666666666666,0.8333333333333334,0.6833333333333333,0.5333333333333333,0.6933333333333334,0.5,2.1258264400035842,0.7,1.765678145000129,0.6,2.309806364995893,0.75,2.206391740014078,0.5,2.001293720008107,0.9,2.2092709950025893,0.5333333333333333,0.5333333333333333,0.7833333333333333,0.7833333333333333,,,,
task_only,00057,150,60,0.5333333333333333,2.1847908633276045,1.4975812999764457,1.437289209193024,0.5333333333333333,0.3333333333333333,0.13333333333333333,60,0.5833333333333334,2.2766720599950836,1.6538919500308111,1.2600980559591826,0.25,0.5833333333333334,0.16666666666666666,30,0.6666666666666666,2.058015123324003,1.8547637999872677,0.7530518132272014,0.03333333333333333,0.3,0.6666666666666666,0.33333333333333337,0.5,0.58,0.6,1.9156589799909853,0.55,2.101905354997143,0.5,2.1843201599927853,0.6,2.1404339249857003,0.5,2.454393449999043,0.6,2.587676900002407,0.5333333333333333,0.5333333333333333,0.5833333333333334,0.5833333333333334,,,,
task_only,00058,150,60,0.6166666666666667,1.7540873616669463,1.354307499997958,1.0013133290139795,0.6166666666666667,0.3333333333333333,0.05,60,0.6166666666666667,2.2060520200005462,1.721722200003569,1.2292649330700471,0.3,0.6166666666666667,0.08333333333333333,30,0.9333333333333333,1.4857427500008877,1.2998339500045404,0.5021891852372257,0.0,0.06666666666666667,0.9333333333333333,0.3166666666666667,0.6166666666666667,0.68,0.8,1.7057412249982007,0.8,2.4941262100022867,0.6,1.9575656050008547,0.45,1.9290732049994403,0.45,1.5989552550017834,0.6,2.194956644999911,0.6166666666666667,0.6166666666666667,0.6166666666666667,0.6166666666666667,,,,
task_only,00059,150,60,0.8333333333333334,1.2781574649988519,1.0838299999886658,0.7977497803809511,0.8333333333333334,0.16666666666666666,0.0,60,0.7833333333333333,1.8361244833339394,1.4104043499974068,0.9984916922472123,0.15,0.7833333333333333,0.06666666666666667,30,0.7333333333333333,2.0814267133323785,1.513930100016296,1.9751156826915872,0.03333333333333333,0.23333333333333334,0.7333333333333333,0.6333333333333333,0.8,0.7933333333333333,0.9,1.3894070999987889,0.75,1.8365449400065699,0.9,1.224947559996508,0.7,1.6982680200017057,0.7,1.2201177350012586,0.9,1.9735604899935424,0.8333333333333334,0.8333333333333334,0.7833333333333333,0.7833333333333333,,,,
task_only,00060,150,60,0.8166666666666667,1.5786605349984408,1.0653338999836706,1.5757835126286295,0.8166666666666667,0.1,0.08333333333333333,60,0.6166666666666667,1.801766423333902,1.3823142000182997,1.5282487752566936,0.23333333333333334,0.6166666666666667,0.15,30,0.8,1.806825809997584,1.0487975500000175,2.253177299393153,0.03333333333333333,0.16666666666666666,0.8,0.38333333333333336,0.7833333333333333,0.7333333333333333,0.85,1.35388720499177,0.6,1.617842484996072,0.85,1.7664702000038233,0.7,2.075765945002786,0.75,1.6156241999997292,0.55,1.7116908400028479,0.8166666666666667,0.8166666666666667,0.6166666666666667,0.6166666666666667,,,,
task_only,00061,150,60,0.85,2.0551874733326256,1.3878851500048768,1.7373625727944355,0.85,0.13333333333333333,0.016666666666666666,60,0.55,2.621908408329667,1.968834049999714,2.359701401176624,0.4,0.55,0.05,30,0.7666666666666667,3.189253580009487,2.1720896000042558,2.3476033707631205,0.06666666666666667,0.16666666666666666,0.7666666666666667,0.15000000000000002,0.7833333333333333,0.7133333333333334,0.85,2.3480787600099573,0.55,2.595151689994964,0.75,2.227711944998009,0.5,2.285962484998163,0.95,1.5897717149899109,0.6,2.9846110499958742,0.85,0.85,0.55,0.55,,,,
task_only,00062,150,60,0.8166666666666667,1.56851535500003,1.2313067000004594,1.1547497564565985,0.8166666666666667,0.13333333333333333,0.05,60,0.5,2.157648325000112,1.8457169000002978,1.09168201362759,0.3,0.5,0.2,30,0.7,2.357275609999912,1.858018049999373,1.650603006005744,0.03333333333333333,0.26666666666666666,0.7,0.2,0.7833333333333333,0.6666666666666666,0.7,1.4422015000001012,0.5,2.3396843750000698,0.95,1.4161539200000335,0.55,1.9272663200002171,0.8,1.8471906449999551,0.45,2.20599428000005,0.8166666666666667,0.8166666666666667,0.5,0.5,,,,
